"view_history","rt","trial_type","trial_index","time_elapsed","internal_node_id","responses","bird","family","class"
"[{""page_index"":0,""viewing_time"":16511}]","16512","instructions","0","16513","0.0-0.0","","","",""
"","2745","image-multi-choice","1","20297","0.0-1.0-0.0","{""Q0"":""American Tree Sparrow""}","American Tree Sparrow","New World Sparrows and Allies","894"
"","3921","image-multi-choice","2","25240","0.0-1.0-1.0","{""Q0"":""Orange-crowned Warbler""}","Tennessee Warbler","Wood-Warblers","866"
"","3007","image-multi-choice","3","29256","0.0-1.0-2.0","{""Q0"":""White-crowned Sparrow""}","White-crowned Sparrow","New World Sparrows and Allies","766"
"","2334","image-multi-choice","4","32601","0.0-1.0-3.0","{""Q0"":""American Tree Sparrow""}","American Tree Sparrow","New World Sparrows and Allies","894"
"","2332","image-multi-choice","5","35960","0.0-1.0-4.0","{""Q0"":""White-crowned Sparrow""}","White-crowned Sparrow","New World Sparrows and Allies","766"
"","3574","image-multi-choice","6","40551","0.0-1.0-5.0","{""Q0"":""Blackburnian Warbler""}","Townsend's Warbler","Wood-Warblers","881"
"","2692","image-multi-choice","7","44272","0.0-1.0-6.0","{""Q0"":""Vesper Sparrow""}","Vesper Sparrow","New World Sparrows and Allies","898"
"","3438","image-multi-choice","8","48728","0.0-1.0-7.0","{""Q0"":""Nashville Warbler""}","Nashville Warbler","Wood-Warblers","868"
"","2544","image-multi-choice","9","52279","0.0-1.0-8.0","{""Q0"":""Northern Waterthrush""}","Northern Waterthrush","Wood-Warblers","862"
"","2526","image-multi-choice","10","55823","0.0-1.0-9.0","{""Q0"":""Ovenbird""}","Ovenbird","Wood-Warblers","860"
"","4649","image-multi-choice","11","61479","0.0-1.0-10.0","{""Q0"":""Lincoln's Sparrow""}","Lincoln's Sparrow","New World Sparrows and Allies","903"
"","5743","image-multi-choice","12","68239","0.0-1.0-11.0","{""Q0"":""Blackburnian Warbler""}","Townsend's Warbler","Wood-Warblers","881"
"","2679","image-multi-choice","13","71935","0.0-1.0-12.0","{""Q0"":""Fox Sparrow""}","Fox Sparrow","New World Sparrows and Allies","901"
"","4426","image-multi-choice","14","77368","0.0-1.0-13.0","{""Q0"":""Townsend's Warbler""}","Blackburnian Warbler","Wood-Warblers","874"
"","2744","image-multi-choice","15","81128","0.0-1.0-14.0","{""Q0"":""Vesper Sparrow""}","Vesper Sparrow","New World Sparrows and Allies","898"
"","2501","image-multi-choice","16","84648","0.0-1.0-15.0","{""Q0"":""Black-and-white Warbler""}","Black-and-white Warbler","Wood-Warblers","864"
"","3559","image-multi-choice","17","89223","0.0-1.0-16.0","{""Q0"":""Nashville Warbler""}","Nashville Warbler","Wood-Warblers","868"
"","2447","image-multi-choice","18","92688","0.0-1.0-17.0","{""Q0"":""Lincoln's Sparrow""}","Lincoln's Sparrow","New World Sparrows and Allies","903"
"","2452","image-multi-choice","19","96159","0.0-1.0-18.0","{""Q0"":""Yellow Warbler""}","Nashville Warbler","Wood-Warblers","868"
"","2600","image-multi-choice","20","99776","0.0-1.0-19.0","{""Q0"":""Lark Sparrow""}","Lark Sparrow","New World Sparrows and Allies","899"
"","3121","image-multi-choice","21","103911","0.0-1.0-20.0","{""Q0"":""Magnolia Warbler""}","Magnolia Warbler","Wood-Warblers","758"
"","4778","image-multi-choice","22","109711","0.0-1.0-21.0","{""Q0"":""Blackburnian Warbler""}","Townsend's Warbler","Wood-Warblers","881"
"","3003","image-multi-choice","23","113720","0.0-1.0-22.0","{""Q0"":""Swamp Sparrow""}","Swamp Sparrow","New World Sparrows and Allies","904"
"","6600","image-multi-choice","24","121336","0.0-1.0-23.0","{""Q0"":""Tennessee Warbler""}","Tennessee Warbler","Wood-Warblers","866"
"","2168","image-multi-choice","25","124520","0.0-1.0-24.0","{""Q0"":""Ovenbird""}","Ovenbird","Wood-Warblers","860"
"","2328","image-multi-choice","26","127857","0.0-1.0-25.0","{""Q0"":""White-crowned Sparrow""}","White-crowned Sparrow","New World Sparrows and Allies","766"
"","3076","image-multi-choice","27","131953","0.0-1.0-26.0","{""Q0"":""Vesper Sparrow""}","Vesper Sparrow","New World Sparrows and Allies","898"
"","2950","image-multi-choice","28","135921","0.0-1.0-27.0","{""Q0"":""Orange-crowned Warbler""}","Orange-crowned Warbler","Wood-Warblers","867"
"","2584","image-multi-choice","29","139521","0.0-1.0-28.0","{""Q0"":""American Tree Sparrow""}","American Tree Sparrow","New World Sparrows and Allies","894"
"","4968","image-multi-choice","30","145504","0.0-1.0-29.0","{""Q0"":""Tennessee Warbler""}","Tennessee Warbler","Wood-Warblers","866"
"","2672","image-multi-choice","31","149193","0.0-1.0-30.0","{""Q0"":""Magnolia Warbler""}","Magnolia Warbler","Wood-Warblers","758"
"","4384","image-multi-choice","32","154593","0.0-1.0-31.0","{""Q0"":""Blackburnian Warbler""}","Blackburnian Warbler","Wood-Warblers","874"
"","2987","image-multi-choice","33","158601","0.0-1.0-32.0","{""Q0"":""Tennessee Warbler""}","Tennessee Warbler","Wood-Warblers","866"
"","2830","image-multi-choice","34","162441","0.0-1.0-33.0","{""Q0"":""Vesper Sparrow""}","Vesper Sparrow","New World Sparrows and Allies","898"
"","2585","image-multi-choice","35","166041","0.0-1.0-34.0","{""Q0"":""Orange-crowned Warbler""}","Orange-crowned Warbler","Wood-Warblers","867"
"","2152","image-multi-choice","36","169209","0.0-1.0-35.0","{""Q0"":""White-crowned Sparrow""}","White-crowned Sparrow","New World Sparrows and Allies","766"
"","2658","image-multi-choice","37","172873","0.0-1.0-36.0","{""Q0"":""Fox Sparrow""}","Fox Sparrow","New World Sparrows and Allies","901"
"","2984","image-multi-choice","38","176873","0.0-1.0-37.0","{""Q0"":""Swamp Sparrow""}","Swamp Sparrow","New World Sparrows and Allies","904"
"","2072","image-multi-choice","39","179961","0.0-1.0-38.0","{""Q0"":""Yellow Warbler""}","Yellow Warbler","Wood-Warblers","875"
"","2599","image-multi-choice","40","183576","0.0-1.0-39.0","{""Q0"":""Black-and-white Warbler""}","Black-and-white Warbler","Wood-Warblers","864"
"","2582","image-multi-choice","41","187168","0.0-1.0-40.0","{""Q0"":""Fox Sparrow""}","Fox Sparrow","New World Sparrows and Allies","901"
"","2446","image-multi-choice","42","190632","0.0-1.0-41.0","{""Q0"":""Northern Waterthrush""}","Northern Waterthrush","Wood-Warblers","862"
"","3373","image-multi-choice","43","195016","0.0-1.0-42.0","{""Q0"":""Nashville Warbler""}","Nashville Warbler","Wood-Warblers","868"
"","4014","image-multi-choice","44","200040","0.0-1.0-43.0","{""Q0"":""Townsend's Warbler""}","Blackburnian Warbler","Wood-Warblers","874"
"","2548","image-multi-choice","45","203600","0.0-1.0-44.0","{""Q0"":""Orange-crowned Warbler""}","Orange-crowned Warbler","Wood-Warblers","867"
"","3565","image-multi-choice","46","208184","0.0-1.0-45.0","{""Q0"":""Blackburnian Warbler""}","Blackburnian Warbler","Wood-Warblers","874"
"","3066","image-multi-choice","47","212264","0.0-1.0-46.0","{""Q0"":""Nashville Warbler""}","Nashville Warbler","Wood-Warblers","868"
"","2323","image-multi-choice","48","215600","0.0-1.0-47.0","{""Q0"":""Northern Waterthrush""}","Northern Waterthrush","Wood-Warblers","862"
"","2247","image-multi-choice","49","218864","0.0-1.0-48.0","{""Q0"":""Fox Sparrow""}","Fox Sparrow","New World Sparrows and Allies","901"
"","3000","image-multi-choice","50","222871","0.0-1.0-49.0","{""Q0"":""Swamp Sparrow""}","Swamp Sparrow","New World Sparrows and Allies","904"
"","3140","image-multi-choice","51","227031","0.0-1.0-50.0","{""Q0"":""Nashville Warbler""}","Nashville Warbler","Wood-Warblers","868"
"","2674","image-multi-choice","52","230720","0.0-1.0-51.0","{""Q0"":""Black-and-white Warbler""}","Black-and-white Warbler","Wood-Warblers","864"
"","2576","image-multi-choice","53","234312","0.0-1.0-52.0","{""Q0"":""American Tree Sparrow""}","American Tree Sparrow","New World Sparrows and Allies","894"
"","2481","image-multi-choice","54","237808","0.0-1.0-53.0","{""Q0"":""Black-and-white Warbler""}","Black-and-white Warbler","Wood-Warblers","864"
"","3064","image-multi-choice","55","241888","0.0-1.0-54.0","{""Q0"":""Blackburnian Warbler""}","Townsend's Warbler","Wood-Warblers","881"
"","2447","image-multi-choice","56","245352","0.0-1.0-55.0","{""Q0"":""Lark Sparrow""}","Lark Sparrow","New World Sparrows and Allies","899"
"","2247","image-multi-choice","57","248616","0.0-1.0-56.0","{""Q0"":""Ovenbird""}","Ovenbird","Wood-Warblers","860"
"","2672","image-multi-choice","58","252296","0.0-1.0-57.0","{""Q0"":""Song Sparrow""}","Song Sparrow","New World Sparrows and Allies","902"
"","3617","image-multi-choice","59","256920","0.0-1.0-58.0","{""Q0"":""Chipping Sparrow""}","Chipping Sparrow","New World Sparrows and Allies","769"
"","2367","image-multi-choice","60","278031","0.0-1.0-59.0","{""Q0"":""Black-and-white Warbler""}","Black-and-white Warbler","Wood-Warblers","864"
"","2779","image-multi-choice","61","281840","0.0-1.0-60.0","{""Q0"":""Chipping Sparrow""}","Chipping Sparrow","New World Sparrows and Allies","769"
"","3312","image-multi-choice","62","286168","0.0-1.0-61.0","{""Q0"":""Swamp Sparrow""}","Swamp Sparrow","New World Sparrows and Allies","904"
"","2846","image-multi-choice","63","290024","0.0-1.0-62.0","{""Q0"":""Yellow Warbler""}","Nashville Warbler","Wood-Warblers","868"
"","2624","image-multi-choice","64","293672","0.0-1.0-63.0","{""Q0"":""Lincoln's Sparrow""}","Lincoln's Sparrow","New World Sparrows and Allies","903"
"","2557","image-multi-choice","65","297248","0.0-1.0-64.0","{""Q0"":""Black-and-white Warbler""}","Black-and-white Warbler","Wood-Warblers","864"
"","2392","image-multi-choice","66","300656","0.0-1.0-65.0","{""Q0"":""Fox Sparrow""}","Fox Sparrow","New World Sparrows and Allies","901"
"","2671","image-multi-choice","67","304344","0.0-1.0-66.0","{""Q0"":""Townsend's Warbler""}","Townsend's Warbler","Wood-Warblers","881"
"","2434","image-multi-choice","68","307809","0.0-1.0-67.0","{""Q0"":""Yellow Warbler""}","Yellow Warbler","Wood-Warblers","875"
"","4001","image-multi-choice","69","312825","0.0-1.0-68.0","{""Q0"":""Tennessee Warbler""}","Tennessee Warbler","Wood-Warblers","866"
"","2286","image-multi-choice","70","316121","0.0-1.0-69.0","{""Q0"":""Ovenbird""}","Ovenbird","Wood-Warblers","860"
"","3364","image-multi-choice","71","320505","0.0-1.0-70.0","{""Q0"":""Blackburnian Warbler""}","Townsend's Warbler","Wood-Warblers","881"
"","3730","image-multi-choice","72","325241","0.0-1.0-71.0","{""Q0"":""Black-and-white Warbler""}","Black-and-white Warbler","Wood-Warblers","864"
"","2569","image-multi-choice","73","328816","0.0-1.0-72.0","{""Q0"":""Song Sparrow""}","Song Sparrow","New World Sparrows and Allies","902"
"","2639","image-multi-choice","74","332473","0.0-1.0-73.0","{""Q0"":""Northern Waterthrush""}","Northern Waterthrush","Wood-Warblers","862"
"","3792","image-multi-choice","75","337273","0.0-1.0-74.0","{""Q0"":""Swamp Sparrow""}","Swamp Sparrow","New World Sparrows and Allies","904"
"","2469","image-multi-choice","76","340761","0.0-1.0-75.0","{""Q0"":""White-crowned Sparrow""}","White-crowned Sparrow","New World Sparrows and Allies","766"
"","2288","image-multi-choice","77","344065","0.0-1.0-76.0","{""Q0"":""White-throated Sparrow""}","White-throated Sparrow","New World Sparrows and Allies","764"
"","4209","image-multi-choice","78","349281","0.0-1.0-77.0","{""Q0"":""Blackburnian Warbler""}","Townsend's Warbler","Wood-Warblers","881"
"","3255","image-multi-choice","79","353553","0.0-1.0-78.0","{""Q0"":""Vesper Sparrow""}","Vesper Sparrow","New World Sparrows and Allies","898"
"","2568","image-multi-choice","80","357138","0.0-1.0-79.0","{""Q0"":""White-throated Sparrow""}","White-throated Sparrow","New World Sparrows and Allies","764"
"","2437","image-multi-choice","81","360585","0.0-1.0-80.0","{""Q0"":""Northern Waterthrush""}","Northern Waterthrush","Wood-Warblers","862"
"","2054","image-multi-choice","82","363649","0.0-1.0-81.0","{""Q0"":""Yellow Warbler""}","Yellow Warbler","Wood-Warblers","875"
"","2968","image-multi-choice","83","367649","0.0-1.0-82.0","{""Q0"":""Nashville Warbler""}","Nashville Warbler","Wood-Warblers","868"
"","2593","image-multi-choice","84","371257","0.0-1.0-83.0","{""Q0"":""Lark Sparrow""}","Lark Sparrow","New World Sparrows and Allies","899"
"","2777","image-multi-choice","85","375049","0.0-1.0-84.0","{""Q0"":""Orange-crowned Warbler""}","Orange-crowned Warbler","Wood-Warblers","867"
"","4502","image-multi-choice","86","380569","0.0-1.0-85.0","{""Q0"":""Yellow Warbler""}","Nashville Warbler","Wood-Warblers","868"
"","2447","image-multi-choice","87","384033","0.0-1.0-86.0","{""Q0"":""Black-and-white Warbler""}","Black-and-white Warbler","Wood-Warblers","864"
"","4065","image-multi-choice","88","389106","0.0-1.0-87.0","{""Q0"":""Nashville Warbler""}","Nashville Warbler","Wood-Warblers","868"
"","2284","image-multi-choice","89","392409","0.0-1.0-88.0","{""Q0"":""Ovenbird""}","Ovenbird","Wood-Warblers","860"
"","2338","image-multi-choice","90","395753","0.0-1.0-89.0","{""Q0"":""Black-and-white Warbler""}","Black-and-white Warbler","Wood-Warblers","864"
"","2649","image-multi-choice","91","399417","0.0-1.0-90.0","{""Q0"":""Chipping Sparrow""}","Chipping Sparrow","New World Sparrows and Allies","769"
"","5998","image-multi-choice","92","406433","0.0-1.0-91.0","{""Q0"":""Tennessee Warbler""}","Tennessee Warbler","Wood-Warblers","866"
"","2897","image-multi-choice","93","410347","0.0-1.0-92.0","{""Q0"":""White-throated Sparrow""}","White-throated Sparrow","New World Sparrows and Allies","764"
"","3793","image-multi-choice","94","415161","0.0-1.0-93.0","{""Q0"":""Song Sparrow""}","Song Sparrow","New World Sparrows and Allies","902"
"","4977","image-multi-choice","95","421153","0.0-1.0-94.0","{""Q0"":""Blackburnian Warbler""}","Blackburnian Warbler","Wood-Warblers","874"
"","2385","image-multi-choice","96","424545","0.0-1.0-95.0","{""Q0"":""American Tree Sparrow""}","American Tree Sparrow","New World Sparrows and Allies","894"
"","2120","image-multi-choice","97","427672","0.0-1.0-96.0","{""Q0"":""White-throated Sparrow""}","White-throated Sparrow","New World Sparrows and Allies","764"
"","4655","image-multi-choice","98","433336","0.0-1.0-97.0","{""Q0"":""Orange-crowned Warbler""}","Orange-crowned Warbler","Wood-Warblers","867"
"","1845","image-multi-choice","99","436200","0.0-1.0-98.0","{""Q0"":""Yellow Warbler""}","Yellow Warbler","Wood-Warblers","875"
"","2296","image-multi-choice","100","439512","0.0-1.0-99.0","{""Q0"":""Fox Sparrow""}","Fox Sparrow","New World Sparrows and Allies","901"
"","2336","image-multi-choice","101","442856","0.0-1.0-100.0","{""Q0"":""Chipping Sparrow""}","Chipping Sparrow","New World Sparrows and Allies","769"
"","3339","image-multi-choice","102","447216","0.0-1.0-101.0","{""Q0"":""Northern Waterthrush""}","Northern Waterthrush","Wood-Warblers","862"
"","3881","image-multi-choice","103","452104","0.0-1.0-102.0","{""Q0"":""Song Sparrow""}","Swamp Sparrow","New World Sparrows and Allies","904"
"","2928","image-multi-choice","104","456040","0.0-1.0-103.0","{""Q0"":""Northern Waterthrush""}","Northern Waterthrush","Wood-Warblers","862"
"","1697","image-multi-choice","105","458752","0.0-1.0-104.0","{""Q0"":""Yellow Warbler""}","Yellow Warbler","Wood-Warblers","875"
"","3857","image-multi-choice","106","463624","0.0-1.0-105.0","{""Q0"":""Magnolia Warbler""}","Magnolia Warbler","Wood-Warblers","758"
"","2570","image-multi-choice","107","467200","0.0-1.0-106.0","{""Q0"":""Townsend's Warbler""}","Townsend's Warbler","Wood-Warblers","881"
"","2584","image-multi-choice","108","470800","0.0-1.0-107.0","{""Q0"":""Swamp Sparrow""}","Swamp Sparrow","New World Sparrows and Allies","904"
"","2698","image-multi-choice","109","474512","0.0-1.0-108.0","{""Q0"":""Fox Sparrow""}","Fox Sparrow","New World Sparrows and Allies","901"
"","1736","image-multi-choice","110","477264","0.0-1.0-109.0","{""Q0"":""Yellow Warbler""}","Yellow Warbler","Wood-Warblers","875"
"","2492","image-multi-choice","111","480776","0.0-1.0-110.0","{""Q0"":""Lincoln's Sparrow""}","Lincoln's Sparrow","New World Sparrows and Allies","903"
"","3688","image-multi-choice","112","485472","0.0-1.0-111.0","{""Q0"":""Blackburnian Warbler""}","Townsend's Warbler","Wood-Warblers","881"
"","2458","image-multi-choice","113","488952","0.0-1.0-112.0","{""Q0"":""White-crowned Sparrow""}","White-crowned Sparrow","New World Sparrows and Allies","766"
"","5266","image-multi-choice","114","495224","0.0-1.0-113.0","{""Q0"":""Blackburnian Warbler""}","Blackburnian Warbler","Wood-Warblers","874"
"","3071","image-multi-choice","115","499313","0.0-1.0-114.0","{""Q0"":""Orange-crowned Warbler""}","Nashville Warbler","Wood-Warblers","868"
"","2646","image-multi-choice","116","502976","0.0-1.0-115.0","{""Q0"":""Tennessee Warbler""}","Tennessee Warbler","Wood-Warblers","866"
"","2247","image-multi-choice","117","506240","0.0-1.0-116.0","{""Q0"":""Vesper Sparrow""}","Vesper Sparrow","New World Sparrows and Allies","898"
"","3289","image-multi-choice","118","510552","0.0-1.0-117.0","{""Q0"":""Swamp Sparrow""}","Swamp Sparrow","New World Sparrows and Allies","904"
"","2117","image-multi-choice","119","513680","0.0-1.0-118.0","{""Q0"":""White-crowned Sparrow""}","White-crowned Sparrow","New World Sparrows and Allies","766"
"","4655","image-multi-choice","120","533319","0.0-1.0-119.0","{""Q0"":""Townsend's Warbler""}","Blackburnian Warbler","Wood-Warblers","874"
"","2434","image-multi-choice","121","536768","0.0-1.0-120.0","{""Q0"":""Fox Sparrow""}","Fox Sparrow","New World Sparrows and Allies","901"
"","2836","image-multi-choice","122","540616","0.0-1.0-121.0","{""Q0"":""Vesper Sparrow""}","Vesper Sparrow","New World Sparrows and Allies","898"
"","2018","image-multi-choice","123","543640","0.0-1.0-122.0","{""Q0"":""Yellow Warbler""}","Yellow Warbler","Wood-Warblers","875"
"","2627","image-multi-choice","124","547288","0.0-1.0-123.0","{""Q0"":""Song Sparrow""}","Song Sparrow","New World Sparrows and Allies","902"
"","5626","image-multi-choice","125","553930","0.0-1.0-124.0","{""Q0"":""Blackburnian Warbler""}","Townsend's Warbler","Wood-Warblers","881"
"","2762","image-multi-choice","126","557697","0.0-1.0-125.0","{""Q0"":""White-crowned Sparrow""}","White-crowned Sparrow","New World Sparrows and Allies","766"
"","2403","image-multi-choice","127","561105","0.0-1.0-126.0","{""Q0"":""Song Sparrow""}","Song Sparrow","New World Sparrows and Allies","902"
"","2223","image-multi-choice","128","564338","0.0-1.0-127.0","{""Q0"":""Ovenbird""}","Ovenbird","Wood-Warblers","860"
"","3200","image-multi-choice","129","568554","0.0-1.0-128.0","{""Q0"":""Magnolia Warbler""}","Magnolia Warbler","Wood-Warblers","758"
"","4523","image-multi-choice","130","574098","0.0-1.0-129.0","{""Q0"":""Swamp Sparrow""}","Swamp Sparrow","New World Sparrows and Allies","904"
"","2682","image-multi-choice","131","577801","0.0-1.0-130.0","{""Q0"":""Lark Sparrow""}","Lark Sparrow","New World Sparrows and Allies","899"
"","2731","image-multi-choice","132","581554","0.0-1.0-131.0","{""Q0"":""Magnolia Warbler""}","Magnolia Warbler","Wood-Warblers","758"
"","3115","image-multi-choice","133","585689","0.0-1.0-132.0","{""Q0"":""White-throated Sparrow""}","White-throated Sparrow","New World Sparrows and Allies","764"
"","2320","image-multi-choice","134","589018","0.0-1.0-133.0","{""Q0"":""Magnolia Warbler""}","Magnolia Warbler","Wood-Warblers","758"
"","1743","image-multi-choice","135","591778","0.0-1.0-134.0","{""Q0"":""Yellow Warbler""}","Yellow Warbler","Wood-Warblers","875"
"","3352","image-multi-choice","136","596137","0.0-1.0-135.0","{""Q0"":""Tennessee Warbler""}","Tennessee Warbler","Wood-Warblers","866"
"","2287","image-multi-choice","137","599441","0.0-1.0-136.0","{""Q0"":""Ovenbird""}","Ovenbird","Wood-Warblers","860"
"","2749","image-multi-choice","138","603209","0.0-1.0-137.0","{""Q0"":""Black-and-white Warbler""}","Black-and-white Warbler","Wood-Warblers","864"
"","3123","image-multi-choice","139","607353","0.0-1.0-138.0","{""Q0"":""Chipping Sparrow""}","Chipping Sparrow","New World Sparrows and Allies","769"
"","3018","image-multi-choice","140","611393","0.0-1.0-139.0","{""Q0"":""Northern Waterthrush""}","Northern Waterthrush","Wood-Warblers","862"
"","2800","image-multi-choice","141","615209","0.0-1.0-140.0","{""Q0"":""Vesper Sparrow""}","Vesper Sparrow","New World Sparrows and Allies","898"
"","2275","image-multi-choice","142","618497","0.0-1.0-141.0","{""Q0"":""White-throated Sparrow""}","White-throated Sparrow","New World Sparrows and Allies","764"
"","2943","image-multi-choice","143","622458","0.0-1.0-142.0","{""Q0"":""Magnolia Warbler""}","Magnolia Warbler","Wood-Warblers","758"
"","4247","image-multi-choice","144","627714","0.0-1.0-143.0","{""Q0"":""Blackburnian Warbler""}","Blackburnian Warbler","Wood-Warblers","874"
"","2218","image-multi-choice","145","630938","0.0-1.0-144.0","{""Q0"":""Lark Sparrow""}","Lark Sparrow","New World Sparrows and Allies","899"
"","4994","image-multi-choice","146","636947","0.0-1.0-145.0","{""Q0"":""Song Sparrow""}","Song Sparrow","New World Sparrows and Allies","902"
"","2209","image-multi-choice","147","640161","0.0-1.0-146.0","{""Q0"":""White-crowned Sparrow""}","White-crowned Sparrow","New World Sparrows and Allies","766"
"","2920","image-multi-choice","148","644098","0.0-1.0-147.0","{""Q0"":""Song Sparrow""}","Chipping Sparrow","New World Sparrows and Allies","769"
"","3076","image-multi-choice","149","648193","0.0-1.0-148.0","{""Q0"":""White-throated Sparrow""}","Swamp Sparrow","New World Sparrows and Allies","904"
"","2449","image-multi-choice","150","651657","0.0-1.0-149.0","{""Q0"":""Fox Sparrow""}","Fox Sparrow","New World Sparrows and Allies","901"
"","1726","image-multi-choice","151","654402","0.0-1.0-150.0","{""Q0"":""Yellow Warbler""}","Yellow Warbler","Wood-Warblers","875"
"","2084","image-multi-choice","152","657498","0.0-1.0-151.0","{""Q0"":""White-crowned Sparrow""}","White-crowned Sparrow","New World Sparrows and Allies","766"
"","3081","image-multi-choice","153","661594","0.0-1.0-152.0","{""Q0"":""Song Sparrow""}","Song Sparrow","New World Sparrows and Allies","902"
"","2672","image-multi-choice","154","665273","0.0-1.0-153.0","{""Q0"":""Northern Waterthrush""}","Northern Waterthrush","Wood-Warblers","862"
"","2311","image-multi-choice","155","668602","0.0-1.0-154.0","{""Q0"":""White-crowned Sparrow""}","White-crowned Sparrow","New World Sparrows and Allies","766"
"","1964","image-multi-choice","156","671572","0.0-1.0-155.0","{""Q0"":""Yellow Warbler""}","Yellow Warbler","Wood-Warblers","875"
"","2643","image-multi-choice","157","675224","0.0-1.0-156.0","{""Q0"":""White-throated Sparrow""}","White-throated Sparrow","New World Sparrows and Allies","764"
"","2375","image-multi-choice","158","678616","0.0-1.0-157.0","{""Q0"":""White-crowned Sparrow""}","White-crowned Sparrow","New World Sparrows and Allies","766"
"","4887","image-multi-choice","159","684513","0.0-1.0-158.0","{""Q0"":""Townsend's Warbler""}","Townsend's Warbler","Wood-Warblers","881"
"","3335","image-multi-choice","160","688864","0.0-1.0-159.0","{""Q0"":""Orange-crowned Warbler""}","Tennessee Warbler","Wood-Warblers","866"
"","2490","image-multi-choice","161","692360","0.0-1.0-160.0","{""Q0"":""White-throated Sparrow""}","White-throated Sparrow","New World Sparrows and Allies","764"
"","2258","image-multi-choice","162","695624","0.0-1.0-161.0","{""Q0"":""Fox Sparrow""}","Fox Sparrow","New World Sparrows and Allies","901"
"","2178","image-multi-choice","163","698809","0.0-1.0-162.0","{""Q0"":""Song Sparrow""}","Song Sparrow","New World Sparrows and Allies","902"
"","2357","image-multi-choice","164","702201","0.0-1.0-163.0","{""Q0"":""White-crowned Sparrow""}","White-crowned Sparrow","New World Sparrows and Allies","766"
"","2577","image-multi-choice","165","705792","0.0-1.0-164.0","{""Q0"":""Song Sparrow""}","Song Sparrow","New World Sparrows and Allies","902"
"","3928","image-multi-choice","166","710728","0.0-1.0-165.0","{""Q0"":""American Tree Sparrow""}","American Tree Sparrow","New World Sparrows and Allies","894"
"","2987","image-multi-choice","167","714729","0.0-1.0-166.0","{""Q0"":""Orange-crowned Warbler""}","Orange-crowned Warbler","Wood-Warblers","867"
"","2481","image-multi-choice","168","718225","0.0-1.0-167.0","{""Q0"":""Lincoln's Sparrow""}","Lincoln's Sparrow","New World Sparrows and Allies","903"
"","4890","image-multi-choice","169","724120","0.0-1.0-168.0","{""Q0"":""Blackburnian Warbler""}","Blackburnian Warbler","Wood-Warblers","874"
"","2383","image-multi-choice","170","727521","0.0-1.0-169.0","{""Q0"":""White-throated Sparrow""}","White-throated Sparrow","New World Sparrows and Allies","764"
"","2379","image-multi-choice","171","730913","0.0-1.0-170.0","{""Q0"":""Fox Sparrow""}","Fox Sparrow","New World Sparrows and Allies","901"
"","2649","image-multi-choice","172","734577","0.0-1.0-171.0","{""Q0"":""Chipping Sparrow""}","Chipping Sparrow","New World Sparrows and Allies","769"
"","3633","image-multi-choice","173","739217","0.0-1.0-172.0","{""Q0"":""Swamp Sparrow""}","Swamp Sparrow","New World Sparrows and Allies","904"
"","2543","image-multi-choice","174","742777","0.0-1.0-173.0","{""Q0"":""Lincoln's Sparrow""}","Lincoln's Sparrow","New World Sparrows and Allies","903"
"","3490","image-multi-choice","175","747273","0.0-1.0-174.0","{""Q0"":""Swamp Sparrow""}","Swamp Sparrow","New World Sparrows and Allies","904"
"","5232","image-multi-choice","176","753521","0.0-1.0-175.0","{""Q0"":""Blackburnian Warbler""}","Townsend's Warbler","Wood-Warblers","881"
"","2503","image-multi-choice","177","757041","0.0-1.0-176.0","{""Q0"":""American Tree Sparrow""}","American Tree Sparrow","New World Sparrows and Allies","894"
"","2025","image-multi-choice","178","760073","0.0-1.0-177.0","{""Q0"":""Fox Sparrow""}","Fox Sparrow","New World Sparrows and Allies","901"
"","3678","image-multi-choice","179","764777","0.0-1.0-178.0","{""Q0"":""Song Sparrow""}","Lincoln's Sparrow","New World Sparrows and Allies","903"
"","2453","image-multi-choice","180","782952","0.0-1.0-179.0","{""Q0"":""Magnolia Warbler""}","Magnolia Warbler","Wood-Warblers","758"
"","3475","image-multi-choice","181","787433","0.0-1.0-180.0","{""Q0"":""Tennessee Warbler""}","Orange-crowned Warbler","Wood-Warblers","867"
"","3689","image-multi-choice","182","792137","0.0-1.0-181.0","{""Q0"":""Orange-crowned Warbler""}","Tennessee Warbler","Wood-Warblers","866"
"","2503","image-multi-choice","183","795657","0.0-1.0-182.0","{""Q0"":""Vesper Sparrow""}","Vesper Sparrow","New World Sparrows and Allies","898"
"","3679","image-multi-choice","184","800345","0.0-1.0-183.0","{""Q0"":""Blackburnian Warbler""}","Blackburnian Warbler","Wood-Warblers","874"
"","2687","image-multi-choice","185","804049","0.0-1.0-184.0","{""Q0"":""Lincoln's Sparrow""}","Lincoln's Sparrow","New World Sparrows and Allies","903"
"","2625","image-multi-choice","186","807680","0.0-1.0-185.0","{""Q0"":""Townsend's Warbler""}","Townsend's Warbler","Wood-Warblers","881"
"","2407","image-multi-choice","187","811105","0.0-1.0-186.0","{""Q0"":""Ovenbird""}","Ovenbird","Wood-Warblers","860"
"","2217","image-multi-choice","188","814337","0.0-1.0-187.0","{""Q0"":""Orange-crowned Warbler""}","Orange-crowned Warbler","Wood-Warblers","867"
"","2410","image-multi-choice","189","817761","0.0-1.0-188.0","{""Q0"":""Chipping Sparrow""}","Chipping Sparrow","New World Sparrows and Allies","769"
"","2397","image-multi-choice","190","821169","0.0-1.0-189.0","{""Q0"":""American Tree Sparrow""}","American Tree Sparrow","New World Sparrows and Allies","894"
"","3671","image-multi-choice","191","825857","0.0-1.0-190.0","{""Q0"":""Song Sparrow""}","Vesper Sparrow","New World Sparrows and Allies","898"
"","2079","image-multi-choice","192","828953","0.0-1.0-191.0","{""Q0"":""Lincoln's Sparrow""}","Lincoln's Sparrow","New World Sparrows and Allies","903"
"","2991","image-multi-choice","193","832961","0.0-1.0-192.0","{""Q0"":""Tennessee Warbler""}","Tennessee Warbler","Wood-Warblers","866"
"","2281","image-multi-choice","194","836256","0.0-1.0-193.0","{""Q0"":""American Tree Sparrow""}","American Tree Sparrow","New World Sparrows and Allies","894"
"","2458","image-multi-choice","195","839721","0.0-1.0-194.0","{""Q0"":""Lark Sparrow""}","Lark Sparrow","New World Sparrows and Allies","899"
"","6989","image-multi-choice","196","847729","0.0-1.0-195.0","{""Q0"":""Tennessee Warbler""}","Tennessee Warbler","Wood-Warblers","866"
"","2722","image-multi-choice","197","851457","0.0-1.0-196.0","{""Q0"":""Northern Waterthrush""}","Northern Waterthrush","Wood-Warblers","862"
"","2015","image-multi-choice","198","854489","0.0-1.0-197.0","{""Q0"":""White-throated Sparrow""}","White-throated Sparrow","New World Sparrows and Allies","764"
"","2281","image-multi-choice","199","857785","0.0-1.0-198.0","{""Q0"":""Yellow Warbler""}","Yellow Warbler","Wood-Warblers","875"
"","2282","image-multi-choice","200","861082","0.0-1.0-199.0","{""Q0"":""White-crowned Sparrow""}","White-crowned Sparrow","New World Sparrows and Allies","766"
"","3830","image-multi-choice","201","865929","0.0-1.0-200.0","{""Q0"":""Chipping Sparrow""}","American Tree Sparrow","New World Sparrows and Allies","894"
"","2421","image-multi-choice","202","869377","0.0-1.0-201.0","{""Q0"":""Ovenbird""}","Ovenbird","Wood-Warblers","860"
"","2434","image-multi-choice","203","872817","0.0-1.0-202.0","{""Q0"":""Magnolia Warbler""}","Magnolia Warbler","Wood-Warblers","758"
"","2305","image-multi-choice","204","876137","0.0-1.0-203.0","{""Q0"":""Black-and-white Warbler""}","Black-and-white Warbler","Wood-Warblers","864"
"","3346","image-multi-choice","205","880497","0.0-1.0-204.0","{""Q0"":""Northern Waterthrush""}","Northern Waterthrush","Wood-Warblers","862"
"","2239","image-multi-choice","206","883753","0.0-1.0-205.0","{""Q0"":""American Tree Sparrow""}","American Tree Sparrow","New World Sparrows and Allies","894"
"","2119","image-multi-choice","207","886881","0.0-1.0-206.0","{""Q0"":""Magnolia Warbler""}","Magnolia Warbler","Wood-Warblers","758"
"","3107","image-multi-choice","208","891009","0.0-1.0-207.0","{""Q0"":""Blackburnian Warbler""}","Blackburnian Warbler","Wood-Warblers","874"
"","3097","image-multi-choice","209","895121","0.0-1.0-208.0","{""Q0"":""Swamp Sparrow""}","Swamp Sparrow","New World Sparrows and Allies","904"
"","2757","image-multi-choice","210","898897","0.0-1.0-209.0","{""Q0"":""American Tree Sparrow""}","American Tree Sparrow","New World Sparrows and Allies","894"
"","1889","image-multi-choice","211","901801","0.0-1.0-210.0","{""Q0"":""Ovenbird""}","Ovenbird","Wood-Warblers","860"
"","2390","image-multi-choice","212","905209","0.0-1.0-211.0","{""Q0"":""Swamp Sparrow""}","Swamp Sparrow","New World Sparrows and Allies","904"
"","1920","image-multi-choice","213","908145","0.0-1.0-212.0","{""Q0"":""Song Sparrow""}","Song Sparrow","New World Sparrows and Allies","902"
"","2992","image-multi-choice","214","912153","0.0-1.0-213.0","{""Q0"":""Blackburnian Warbler""}","Blackburnian Warbler","Wood-Warblers","874"
"","3161","image-multi-choice","215","916329","0.0-1.0-214.0","{""Q0"":""Vesper Sparrow""}","Vesper Sparrow","New World Sparrows and Allies","898"
"","3249","image-multi-choice","216","920593","0.0-1.0-215.0","{""Q0"":""Blackburnian Warbler""}","Blackburnian Warbler","Wood-Warblers","874"
"","2244","image-multi-choice","217","923849","0.0-1.0-216.0","{""Q0"":""Song Sparrow""}","Song Sparrow","New World Sparrows and Allies","902"
"","3632","image-multi-choice","218","928497","0.0-1.0-217.0","{""Q0"":""Tennessee Warbler""}","Tennessee Warbler","Wood-Warblers","866"
"","2744","image-multi-choice","219","932249","0.0-1.0-218.0","{""Q0"":""Black-and-white Warbler""}","Black-and-white Warbler","Wood-Warblers","864"
"","2127","image-multi-choice","220","935393","0.0-1.0-219.0","{""Q0"":""Ovenbird""}","Ovenbird","Wood-Warblers","860"
"","1937","image-multi-choice","221","938345","0.0-1.0-220.0","{""Q0"":""White-throated Sparrow""}","White-throated Sparrow","New World Sparrows and Allies","764"
"","2279","image-multi-choice","222","941641","0.0-1.0-221.0","{""Q0"":""Vesper Sparrow""}","Vesper Sparrow","New World Sparrows and Allies","898"
"","2318","image-multi-choice","223","944969","0.0-1.0-222.0","{""Q0"":""American Tree Sparrow""}","American Tree Sparrow","New World Sparrows and Allies","894"
"","1659","image-multi-choice","224","947649","0.0-1.0-223.0","{""Q0"":""Yellow Warbler""}","Yellow Warbler","Wood-Warblers","875"
"","1984","image-multi-choice","225","950641","0.0-1.0-224.0","{""Q0"":""Northern Waterthrush""}","Northern Waterthrush","Wood-Warblers","862"
"","3210","image-multi-choice","226","954866","0.0-1.0-225.0","{""Q0"":""Blackburnian Warbler""}","Blackburnian Warbler","Wood-Warblers","874"
"","2025","image-multi-choice","227","957897","0.0-1.0-226.0","{""Q0"":""White-throated Sparrow""}","White-throated Sparrow","New World Sparrows and Allies","764"
"","2303","image-multi-choice","228","961210","0.0-1.0-227.0","{""Q0"":""Song Sparrow""}","Song Sparrow","New World Sparrows and Allies","902"
"","2281","image-multi-choice","229","964498","0.0-1.0-228.0","{""Q0"":""Ovenbird""}","Ovenbird","Wood-Warblers","860"
"","2303","image-multi-choice","230","967809","0.0-1.0-229.0","{""Q0"":""Townsend's Warbler""}","Townsend's Warbler","Wood-Warblers","881"
"","4366","image-multi-choice","231","973185","0.0-1.0-230.0","{""Q0"":""Nashville Warbler""}","Nashville Warbler","Wood-Warblers","868"
"","2218","image-multi-choice","232","976418","0.0-1.0-231.0","{""Q0"":""Fox Sparrow""}","Fox Sparrow","New World Sparrows and Allies","901"
"","2168","image-multi-choice","233","979601","0.0-1.0-232.0","{""Q0"":""Ovenbird""}","Ovenbird","Wood-Warblers","860"
"","2318","image-multi-choice","234","982929","0.0-1.0-233.0","{""Q0"":""Magnolia Warbler""}","Magnolia Warbler","Wood-Warblers","758"
"","2303","image-multi-choice","235","986249","0.0-1.0-234.0","{""Q0"":""American Tree Sparrow""}","American Tree Sparrow","New World Sparrows and Allies","894"
"","3830","image-multi-choice","236","991089","0.0-1.0-235.0","{""Q0"":""Townsend's Warbler""}","Blackburnian Warbler","Wood-Warblers","874"
"","2575","image-multi-choice","237","994673","0.0-1.0-236.0","{""Q0"":""Chipping Sparrow""}","Chipping Sparrow","New World Sparrows and Allies","769"
"","2089","image-multi-choice","238","997777","0.0-1.0-237.0","{""Q0"":""Fox Sparrow""}","Fox Sparrow","New World Sparrows and Allies","901"
"","2885","image-multi-choice","239","1001673","0.0-1.0-238.0","{""Q0"":""Vesper Sparrow""}","Vesper Sparrow","New World Sparrows and Allies","898"
"","4590","image-multi-choice","240","1114225","0.0-1.0-239.0","{""Q0"":""Northern Waterthrush""}","Northern Waterthrush","Wood-Warblers","862"
"","3001","image-multi-choice","241","1118242","0.0-1.0-240.0","{""Q0"":""Lark Sparrow""}","Lark Sparrow","New World Sparrows and Allies","899"
"","2697","image-multi-choice","242","1121946","0.0-1.0-241.0","{""Q0"":""Nashville Warbler""}","Nashville Warbler","Wood-Warblers","868"
"","2440","image-multi-choice","243","1125403","0.0-1.0-242.0","{""Q0"":""Ovenbird""}","Ovenbird","Wood-Warblers","860"
"","2167","image-multi-choice","244","1128586","0.0-1.0-243.0","{""Q0"":""Northern Waterthrush""}","Northern Waterthrush","Wood-Warblers","862"
"","2447","image-multi-choice","245","1132042","0.0-1.0-244.0","{""Q0"":""Orange-crowned Warbler""}","Orange-crowned Warbler","Wood-Warblers","867"
"","3112","image-multi-choice","246","1136171","0.0-1.0-245.0","{""Q0"":""Chipping Sparrow""}","Chipping Sparrow","New World Sparrows and Allies","769"
"","2656","image-multi-choice","247","1139843","0.0-1.0-246.0","{""Q0"":""Tennessee Warbler""}","Tennessee Warbler","Wood-Warblers","866"
"","2250","image-multi-choice","248","1143106","0.0-1.0-247.0","{""Q0"":""Yellow Warbler""}","Yellow Warbler","Wood-Warblers","875"
"","2890","image-multi-choice","249","1147010","0.0-1.0-248.0","{""Q0"":""Lincoln's Sparrow""}","Lincoln's Sparrow","New World Sparrows and Allies","903"
"","4257","image-multi-choice","250","1152283","0.0-1.0-249.0","{""Q0"":""Vesper Sparrow""}","Vesper Sparrow","New World Sparrows and Allies","898"
"","2090","image-multi-choice","251","1155386","0.0-1.0-250.0","{""Q0"":""Black-and-white Warbler""}","Black-and-white Warbler","Wood-Warblers","864"
"","2291","image-multi-choice","252","1158684","0.0-1.0-251.0","{""Q0"":""Song Sparrow""}","Song Sparrow","New World Sparrows and Allies","902"
"","2452","image-multi-choice","253","1162163","0.0-1.0-252.0","{""Q0"":""Chipping Sparrow""}","Chipping Sparrow","New World Sparrows and Allies","769"
"","2660","image-multi-choice","254","1165842","0.0-1.0-253.0","{""Q0"":""Magnolia Warbler""}","Magnolia Warbler","Wood-Warblers","758"
"","2411","image-multi-choice","255","1169267","0.0-1.0-254.0","{""Q0"":""Lincoln's Sparrow""}","Lincoln's Sparrow","New World Sparrows and Allies","903"
"","2310","image-multi-choice","256","1172594","0.0-1.0-255.0","{""Q0"":""White-throated Sparrow""}","White-throated Sparrow","New World Sparrows and Allies","764"
"","2476","image-multi-choice","257","1176081","0.0-1.0-256.0","{""Q0"":""Fox Sparrow""}","Fox Sparrow","New World Sparrows and Allies","901"
"","2329","image-multi-choice","258","1179417","0.0-1.0-257.0","{""Q0"":""Black-and-white Warbler""}","Black-and-white Warbler","Wood-Warblers","864"
"","2841","image-multi-choice","259","1183266","0.0-1.0-258.0","{""Q0"":""Chipping Sparrow""}","Chipping Sparrow","New World Sparrows and Allies","769"
"","3216","image-multi-choice","260","1187490","0.0-1.0-259.0","{""Q0"":""Tennessee Warbler""}","Orange-crowned Warbler","Wood-Warblers","867"
"","2122","image-multi-choice","261","1190617","0.0-1.0-260.0","{""Q0"":""Lark Sparrow""}","Lark Sparrow","New World Sparrows and Allies","899"
"","2896","image-multi-choice","262","1194522","0.0-1.0-261.0","{""Q0"":""Song Sparrow""}","Lincoln's Sparrow","New World Sparrows and Allies","903"
"","2350","image-multi-choice","263","1197881","0.0-1.0-262.0","{""Q0"":""Northern Waterthrush""}","Northern Waterthrush","Wood-Warblers","862"
"","2573","image-multi-choice","264","1201473","0.0-1.0-263.0","{""Q0"":""Nashville Warbler""}","Nashville Warbler","Wood-Warblers","868"
"","2186","image-multi-choice","265","1204674","0.0-1.0-264.0","{""Q0"":""Lark Sparrow""}","Lark Sparrow","New World Sparrows and Allies","899"
"","2025","image-multi-choice","266","1207706","0.0-1.0-265.0","{""Q0"":""Orange-crowned Warbler""}","Orange-crowned Warbler","Wood-Warblers","867"
"","2208","image-multi-choice","267","1210930","0.0-1.0-266.0","{""Q0"":""Magnolia Warbler""}","Magnolia Warbler","Wood-Warblers","758"
"","2273","image-multi-choice","268","1214217","0.0-1.0-267.0","{""Q0"":""Orange-crowned Warbler""}","Orange-crowned Warbler","Wood-Warblers","867"
"","1673","image-multi-choice","269","1216905","0.0-1.0-268.0","{""Q0"":""Yellow Warbler""}","Yellow Warbler","Wood-Warblers","875"
"","2266","image-multi-choice","270","1220185","0.0-1.0-269.0","{""Q0"":""Orange-crowned Warbler""}","Orange-crowned Warbler","Wood-Warblers","867"
"","2433","image-multi-choice","271","1223641","0.0-1.0-270.0","{""Q0"":""Lincoln's Sparrow""}","Lincoln's Sparrow","New World Sparrows and Allies","903"
"","2103","image-multi-choice","272","1226761","0.0-1.0-271.0","{""Q0"":""Lark Sparrow""}","Lark Sparrow","New World Sparrows and Allies","899"
"","2342","image-multi-choice","273","1230122","0.0-1.0-272.0","{""Q0"":""Lincoln's Sparrow""}","Lincoln's Sparrow","New World Sparrows and Allies","903"
"","2887","image-multi-choice","274","1234026","0.0-1.0-273.0","{""Q0"":""Yellow Warbler""}","Nashville Warbler","Wood-Warblers","868"
"","2161","image-multi-choice","275","1237193","0.0-1.0-274.0","{""Q0"":""Lark Sparrow""}","Lark Sparrow","New World Sparrows and Allies","899"
"","2296","image-multi-choice","276","1240505","0.0-1.0-275.0","{""Q0"":""Chipping Sparrow""}","Chipping Sparrow","New World Sparrows and Allies","769"
"","2419","image-multi-choice","277","1243945","0.0-1.0-276.0","{""Q0"":""White-throated Sparrow""}","White-throated Sparrow","New World Sparrows and Allies","764"
"","2297","image-multi-choice","278","1247258","0.0-1.0-277.0","{""Q0"":""Song Sparrow""}","Song Sparrow","New World Sparrows and Allies","902"
"","2351","image-multi-choice","279","1250626","0.0-1.0-278.0","{""Q0"":""Ovenbird""}","Ovenbird","Wood-Warblers","860"
"","2035","image-multi-choice","280","1253673","0.0-1.0-279.0","{""Q0"":""Lark Sparrow""}","Lark Sparrow","New World Sparrows and Allies","899"
"","2502","image-multi-choice","281","1257186","0.0-1.0-280.0","{""Q0"":""Chipping Sparrow""}","Chipping Sparrow","New World Sparrows and Allies","769"
"","2030","image-multi-choice","282","1260234","0.0-1.0-281.0","{""Q0"":""Lark Sparrow""}","Lark Sparrow","New World Sparrows and Allies","899"
"","2088","image-multi-choice","283","1263337","0.0-1.0-282.0","{""Q0"":""Song Sparrow""}","Song Sparrow","New World Sparrows and Allies","902"
"","3738","image-multi-choice","284","1268089","0.0-1.0-283.0","{""Q0"":""White-throated Sparrow""}","White-throated Sparrow","New World Sparrows and Allies","764"
"","2060","image-multi-choice","285","1271161","0.0-1.0-284.0","{""Q0"":""Magnolia Warbler""}","Magnolia Warbler","Wood-Warblers","758"
"","2340","image-multi-choice","286","1274521","0.0-1.0-285.0","{""Q0"":""Orange-crowned Warbler""}","Orange-crowned Warbler","Wood-Warblers","867"
"","2038","image-multi-choice","287","1277571","0.0-1.0-286.0","{""Q0"":""Lincoln's Sparrow""}","Lincoln's Sparrow","New World Sparrows and Allies","903"
"","2566","image-multi-choice","288","1281154","0.0-1.0-287.0","{""Q0"":""Lark Sparrow""}","Lark Sparrow","New World Sparrows and Allies","899"
"","3863","image-multi-choice","289","1286034","0.0-1.0-288.0","{""Q0"":""Magnolia Warbler""}","Townsend's Warbler","Wood-Warblers","881"
"","2096","image-multi-choice","290","1289138","0.0-1.0-289.0","{""Q0"":""Black-and-white Warbler""}","Black-and-white Warbler","Wood-Warblers","864"
"","2701","image-multi-choice","291","1292858","0.0-1.0-290.0","{""Q0"":""Tennessee Warbler""}","Tennessee Warbler","Wood-Warblers","866"
"","2753","image-multi-choice","292","1296626","0.0-1.0-291.0","{""Q0"":""Chipping Sparrow""}","American Tree Sparrow","New World Sparrows and Allies","894"
"","3105","image-multi-choice","293","1300739","0.0-1.0-292.0","{""Q0"":""Chipping Sparrow""}","Chipping Sparrow","New World Sparrows and Allies","769"
"","2117","image-multi-choice","294","1303867","0.0-1.0-293.0","{""Q0"":""Lark Sparrow""}","Lark Sparrow","New World Sparrows and Allies","899"
"","2624","image-multi-choice","295","1307499","0.0-1.0-294.0","{""Q0"":""Magnolia Warbler""}","Magnolia Warbler","Wood-Warblers","758"
"","2109","image-multi-choice","296","1310618","0.0-1.0-295.0","{""Q0"":""Yellow Warbler""}","Yellow Warbler","Wood-Warblers","875"
"","2575","image-multi-choice","297","1314202","0.0-1.0-296.0","{""Q0"":""White-crowned Sparrow""}","White-crowned Sparrow","New World Sparrows and Allies","766"
"","2601","image-multi-choice","298","1317811","0.0-1.0-297.0","{""Q0"":""Song Sparrow""}","Swamp Sparrow","New World Sparrows and Allies","904"
"","8423","image-multi-choice","299","1327251","0.0-1.0-298.0","{""Q0"":""Orange-crowned Warbler""}","Orange-crowned Warbler","Wood-Warblers","867"
"","2381","image-multi-choice","300","1360929","0.0-1.0-299.0","{""Q0"":""Vesper Sparrow""}","Vesper Sparrow","New World Sparrows and Allies","898"
"[{""page_index"":0,""viewing_time"":2535}]","2536","instructions","301","1364465","0.0-2.0","","","",""
