"view_history","rt","trial_type","trial_index","time_elapsed","internal_node_id","responses","bird","family","class"
"[{""page_index"":0,""viewing_time"":9010}]","9011","instructions","0","9013","0.0-0.0","","","",""
"","4721","image-multi-choice","1","14755","0.0-1.0-0.0","{""Q0"":""American Tree Sparrow""}","American Tree Sparrow","New World Sparrows and Allies","894"
"","16426","image-multi-choice","2","32193","0.0-1.0-1.0","{""Q0"":""Tennessee Warbler""}","Tennessee Warbler","Wood-Warblers","866"
"","5471","image-multi-choice","3","38676","0.0-1.0-2.0","{""Q0"":""White-crowned Sparrow""}","White-crowned Sparrow","New World Sparrows and Allies","766"
"","4294","image-multi-choice","4","43982","0.0-1.0-3.0","{""Q0"":""American Tree Sparrow""}","American Tree Sparrow","New World Sparrows and Allies","894"
"","3794","image-multi-choice","5","48786","0.0-1.0-4.0","{""Q0"":""White-crowned Sparrow""}","White-crowned Sparrow","New World Sparrows and Allies","766"
"","5869","image-multi-choice","6","55668","0.0-1.0-5.0","{""Q0"":""Blackburnian Warbler""}","Townsend's Warbler","Wood-Warblers","881"
"","4073","image-multi-choice","7","60754","0.0-1.0-6.0","{""Q0"":""Vesper Sparrow""}","Vesper Sparrow","New World Sparrows and Allies","898"
"","10763","image-multi-choice","8","72527","0.0-1.0-7.0","{""Q0"":""Nashville Warbler""}","Nashville Warbler","Wood-Warblers","868"
"","4597","image-multi-choice","9","78135","0.0-1.0-8.0","{""Q0"":""Northern Waterthrush""}","Northern Waterthrush","Wood-Warblers","862"
"","4037","image-multi-choice","10","83183","0.0-1.0-9.0","{""Q0"":""Ovenbird""}","Ovenbird","Wood-Warblers","860"
"","3737","image-multi-choice","11","87933","0.0-1.0-10.0","{""Q0"":""Lincoln's Sparrow""}","Lincoln's Sparrow","New World Sparrows and Allies","903"
"","4552","image-multi-choice","12","93495","0.0-1.0-11.0","{""Q0"":""Townsend's Warbler""}","Townsend's Warbler","Wood-Warblers","881"
"","4874","image-multi-choice","13","99379","0.0-1.0-12.0","{""Q0"":""Fox Sparrow""}","Fox Sparrow","New World Sparrows and Allies","901"
"","6855","image-multi-choice","14","107244","0.0-1.0-13.0","{""Q0"":""Blackburnian Warbler""}","Blackburnian Warbler","Wood-Warblers","874"
"","9960","image-multi-choice","15","118213","0.0-1.0-14.0","{""Q0"":""Vesper Sparrow""}","Vesper Sparrow","New World Sparrows and Allies","898"
"","4007","image-multi-choice","16","123229","0.0-1.0-15.0","{""Q0"":""Black-and-white Warbler""}","Black-and-white Warbler","Wood-Warblers","864"
"","6022","image-multi-choice","17","130261","0.0-1.0-16.0","{""Q0"":""Nashville Warbler""}","Nashville Warbler","Wood-Warblers","868"
"","5465","image-multi-choice","18","136737","0.0-1.0-17.0","{""Q0"":""Lincoln's Sparrow""}","Lincoln's Sparrow","New World Sparrows and Allies","903"
"","9489","image-multi-choice","19","147237","0.0-1.0-18.0","{""Q0"":""Nashville Warbler""}","Nashville Warbler","Wood-Warblers","868"
"","4092","image-multi-choice","20","152339","0.0-1.0-19.0","{""Q0"":""Lark Sparrow""}","Lark Sparrow","New World Sparrows and Allies","899"
"","4417","image-multi-choice","21","157767","0.0-1.0-20.0","{""Q0"":""Magnolia Warbler""}","Magnolia Warbler","Wood-Warblers","758"
"","3893","image-multi-choice","22","162673","0.0-1.0-21.0","{""Q0"":""Townsend's Warbler""}","Townsend's Warbler","Wood-Warblers","881"
"","4030","image-multi-choice","23","167713","0.0-1.0-22.0","{""Q0"":""Swamp Sparrow""}","Swamp Sparrow","New World Sparrows and Allies","904"
"","5286","image-multi-choice","24","174009","0.0-1.0-23.0","{""Q0"":""Tennessee Warbler""}","Tennessee Warbler","Wood-Warblers","866"
"","3469","image-multi-choice","25","178487","0.0-1.0-24.0","{""Q0"":""Ovenbird""}","Ovenbird","Wood-Warblers","860"
"","2409","image-multi-choice","26","181909","0.0-1.0-25.0","{""Q0"":""White-crowned Sparrow""}","White-crowned Sparrow","New World Sparrows and Allies","766"
"","5426","image-multi-choice","27","188345","0.0-1.0-26.0","{""Q0"":""Vesper Sparrow""}","Vesper Sparrow","New World Sparrows and Allies","898"
"","10264","image-multi-choice","28","199619","0.0-1.0-27.0","{""Q0"":""Orange-crowned Warbler""}","Orange-crowned Warbler","Wood-Warblers","867"
"","3982","image-multi-choice","29","204611","0.0-1.0-28.0","{""Q0"":""American Tree Sparrow""}","American Tree Sparrow","New World Sparrows and Allies","894"
"","5351","image-multi-choice","30","210971","0.0-1.0-29.0","{""Q0"":""Tennessee Warbler""}","Tennessee Warbler","Wood-Warblers","866"
"","3887","image-multi-choice","31","215869","0.0-1.0-30.0","{""Q0"":""Magnolia Warbler""}","Magnolia Warbler","Wood-Warblers","758"
"","3380","image-multi-choice","32","220259","0.0-1.0-31.0","{""Q0"":""Blackburnian Warbler""}","Blackburnian Warbler","Wood-Warblers","874"
"","2859","image-multi-choice","33","224128","0.0-1.0-32.0","{""Q0"":""Tennessee Warbler""}","Tennessee Warbler","Wood-Warblers","866"
"","2613","image-multi-choice","34","227752","0.0-1.0-33.0","{""Q0"":""Vesper Sparrow""}","Vesper Sparrow","New World Sparrows and Allies","898"
"","16783","image-multi-choice","35","245546","0.0-1.0-34.0","{""Q0"":""Orange-crowned Warbler""}","Orange-crowned Warbler","Wood-Warblers","867"
"","2582","image-multi-choice","36","249140","0.0-1.0-35.0","{""Q0"":""White-crowned Sparrow""}","White-crowned Sparrow","New World Sparrows and Allies","766"
"","4648","image-multi-choice","37","254799","0.0-1.0-36.0","{""Q0"":""Fox Sparrow""}","Fox Sparrow","New World Sparrows and Allies","901"
"","4241","image-multi-choice","38","260050","0.0-1.0-37.0","{""Q0"":""Swamp Sparrow""}","Swamp Sparrow","New World Sparrows and Allies","904"
"","7739","image-multi-choice","39","268798","0.0-1.0-38.0","{""Q0"":""Yellow Warbler""}","Yellow Warbler","Wood-Warblers","875"
"","3725","image-multi-choice","40","273534","0.0-1.0-39.0","{""Q0"":""Black-and-white Warbler""}","Black-and-white Warbler","Wood-Warblers","864"
"","3760","image-multi-choice","41","278305","0.0-1.0-40.0","{""Q0"":""Fox Sparrow""}","Fox Sparrow","New World Sparrows and Allies","901"
"","6288","image-multi-choice","42","285604","0.0-1.0-41.0","{""Q0"":""Northern Waterthrush""}","Northern Waterthrush","Wood-Warblers","862"
"","4318","image-multi-choice","43","290931","0.0-1.0-42.0","{""Q0"":""Nashville Warbler""}","Nashville Warbler","Wood-Warblers","868"
"","3528","image-multi-choice","44","295470","0.0-1.0-43.0","{""Q0"":""Blackburnian Warbler""}","Blackburnian Warbler","Wood-Warblers","874"
"","5756","image-multi-choice","45","302236","0.0-1.0-44.0","{""Q0"":""Orange-crowned Warbler""}","Orange-crowned Warbler","Wood-Warblers","867"
"","3623","image-multi-choice","46","306868","0.0-1.0-45.0","{""Q0"":""Blackburnian Warbler""}","Blackburnian Warbler","Wood-Warblers","874"
"","4304","image-multi-choice","47","312181","0.0-1.0-46.0","{""Q0"":""Nashville Warbler""}","Nashville Warbler","Wood-Warblers","868"
"","5076","image-multi-choice","48","318268","0.0-1.0-47.0","{""Q0"":""Northern Waterthrush""}","Northern Waterthrush","Wood-Warblers","862"
"","3483","image-multi-choice","49","322759","0.0-1.0-48.0","{""Q0"":""Fox Sparrow""}","Fox Sparrow","New World Sparrows and Allies","901"
"","4160","image-multi-choice","50","327929","0.0-1.0-49.0","{""Q0"":""Swamp Sparrow""}","Swamp Sparrow","New World Sparrows and Allies","904"
"","4177","image-multi-choice","51","333117","0.0-1.0-50.0","{""Q0"":""Nashville Warbler""}","Nashville Warbler","Wood-Warblers","868"
"","3098","image-multi-choice","52","337226","0.0-1.0-51.0","{""Q0"":""Black-and-white Warbler""}","Black-and-white Warbler","Wood-Warblers","864"
"","3349","image-multi-choice","53","341587","0.0-1.0-52.0","{""Q0"":""American Tree Sparrow""}","American Tree Sparrow","New World Sparrows and Allies","894"
"","3004","image-multi-choice","54","345601","0.0-1.0-53.0","{""Q0"":""Black-and-white Warbler""}","Black-and-white Warbler","Wood-Warblers","864"
"","4351","image-multi-choice","55","350961","0.0-1.0-54.0","{""Q0"":""Townsend's Warbler""}","Townsend's Warbler","Wood-Warblers","881"
"","4974","image-multi-choice","56","356945","0.0-1.0-55.0","{""Q0"":""Lark Sparrow""}","Lark Sparrow","New World Sparrows and Allies","899"
"","3780","image-multi-choice","57","361735","0.0-1.0-56.0","{""Q0"":""Ovenbird""}","Ovenbird","Wood-Warblers","860"
"","4255","image-multi-choice","58","367001","0.0-1.0-57.0","{""Q0"":""Song Sparrow""}","Song Sparrow","New World Sparrows and Allies","902"
"","4381","image-multi-choice","59","372391","0.0-1.0-58.0","{""Q0"":""Chipping Sparrow""}","Chipping Sparrow","New World Sparrows and Allies","769"
"","2511","image-multi-choice","60","381247","0.0-1.0-59.0","{""Q0"":""Black-and-white Warbler""}","Black-and-white Warbler","Wood-Warblers","864"
"","3413","image-multi-choice","61","385671","0.0-1.0-60.0","{""Q0"":""Chipping Sparrow""}","Chipping Sparrow","New World Sparrows and Allies","769"
"","3582","image-multi-choice","62","390265","0.0-1.0-61.0","{""Q0"":""Swamp Sparrow""}","Swamp Sparrow","New World Sparrows and Allies","904"
"","7686","image-multi-choice","63","398961","0.0-1.0-62.0","{""Q0"":""Nashville Warbler""}","Nashville Warbler","Wood-Warblers","868"
"","3775","image-multi-choice","64","403749","0.0-1.0-63.0","{""Q0"":""Lincoln's Sparrow""}","Lincoln's Sparrow","New World Sparrows and Allies","903"
"","2765","image-multi-choice","65","407523","0.0-1.0-64.0","{""Q0"":""Black-and-white Warbler""}","Black-and-white Warbler","Wood-Warblers","864"
"","2896","image-multi-choice","66","411429","0.0-1.0-65.0","{""Q0"":""Fox Sparrow""}","Fox Sparrow","New World Sparrows and Allies","901"
"","4169","image-multi-choice","67","416609","0.0-1.0-66.0","{""Q0"":""Townsend's Warbler""}","Townsend's Warbler","Wood-Warblers","881"
"","2435","image-multi-choice","68","420055","0.0-1.0-67.0","{""Q0"":""Yellow Warbler""}","Yellow Warbler","Wood-Warblers","875"
"","3137","image-multi-choice","69","424203","0.0-1.0-68.0","{""Q0"":""Tennessee Warbler""}","Tennessee Warbler","Wood-Warblers","866"
"","3435","image-multi-choice","70","428649","0.0-1.0-69.0","{""Q0"":""Ovenbird""}","Ovenbird","Wood-Warblers","860"
"","2903","image-multi-choice","71","432561","0.0-1.0-70.0","{""Q0"":""Townsend's Warbler""}","Townsend's Warbler","Wood-Warblers","881"
"","2451","image-multi-choice","72","436022","0.0-1.0-71.0","{""Q0"":""Black-and-white Warbler""}","Black-and-white Warbler","Wood-Warblers","864"
"","4490","image-multi-choice","73","441523","0.0-1.0-72.0","{""Q0"":""Song Sparrow""}","Song Sparrow","New World Sparrows and Allies","902"
"","4190","image-multi-choice","74","446725","0.0-1.0-73.0","{""Q0"":""Northern Waterthrush""}","Northern Waterthrush","Wood-Warblers","862"
"","3225","image-multi-choice","75","450961","0.0-1.0-74.0","{""Q0"":""Swamp Sparrow""}","Swamp Sparrow","New World Sparrows and Allies","904"
"","3230","image-multi-choice","76","455201","0.0-1.0-75.0","{""Q0"":""White-crowned Sparrow""}","White-crowned Sparrow","New World Sparrows and Allies","766"
"","2342","image-multi-choice","77","458553","0.0-1.0-76.0","{""Q0"":""White-throated Sparrow""}","White-throated Sparrow","New World Sparrows and Allies","764"
"","4912","image-multi-choice","78","464475","0.0-1.0-77.0","{""Q0"":""Townsend's Warbler""}","Townsend's Warbler","Wood-Warblers","881"
"","3046","image-multi-choice","79","468531","0.0-1.0-78.0","{""Q0"":""Vesper Sparrow""}","Vesper Sparrow","New World Sparrows and Allies","898"
"","2388","image-multi-choice","80","471929","0.0-1.0-79.0","{""Q0"":""White-throated Sparrow""}","White-throated Sparrow","New World Sparrows and Allies","764"
"","3078","image-multi-choice","81","476016","0.0-1.0-80.0","{""Q0"":""Northern Waterthrush""}","Northern Waterthrush","Wood-Warblers","862"
"","1949","image-multi-choice","82","478975","0.0-1.0-81.0","{""Q0"":""Yellow Warbler""}","Yellow Warbler","Wood-Warblers","875"
"","5843","image-multi-choice","83","485827","0.0-1.0-82.0","{""Q0"":""Nashville Warbler""}","Nashville Warbler","Wood-Warblers","868"
"","4256","image-multi-choice","84","491093","0.0-1.0-83.0","{""Q0"":""Lark Sparrow""}","Lark Sparrow","New World Sparrows and Allies","899"
"","7856","image-multi-choice","85","499961","0.0-1.0-84.0","{""Q0"":""Orange-crowned Warbler""}","Orange-crowned Warbler","Wood-Warblers","867"
"","15316","image-multi-choice","86","516287","0.0-1.0-85.0","{""Q0"":""Yellow Warbler""}","Nashville Warbler","Wood-Warblers","868"
"","3101","image-multi-choice","87","520397","0.0-1.0-86.0","{""Q0"":""Black-and-white Warbler""}","Black-and-white Warbler","Wood-Warblers","864"
"","5179","image-multi-choice","88","526585","0.0-1.0-87.0","{""Q0"":""Nashville Warbler""}","Nashville Warbler","Wood-Warblers","868"
"","4240","image-multi-choice","89","531835","0.0-1.0-88.0","{""Q0"":""Ovenbird""}","Ovenbird","Wood-Warblers","860"
"","3097","image-multi-choice","90","535943","0.0-1.0-89.0","{""Q0"":""Black-and-white Warbler""}","Black-and-white Warbler","Wood-Warblers","864"
"","2982","image-multi-choice","91","539935","0.0-1.0-90.0","{""Q0"":""Chipping Sparrow""}","Chipping Sparrow","New World Sparrows and Allies","769"
"","3638","image-multi-choice","92","544585","0.0-1.0-91.0","{""Q0"":""Tennessee Warbler""}","Tennessee Warbler","Wood-Warblers","866"
"","2779","image-multi-choice","93","548373","0.0-1.0-92.0","{""Q0"":""White-throated Sparrow""}","White-throated Sparrow","New World Sparrows and Allies","764"
"","9867","image-multi-choice","94","559249","0.0-1.0-93.0","{""Q0"":""Song Sparrow""}","Song Sparrow","New World Sparrows and Allies","902"
"","3677","image-multi-choice","95","563935","0.0-1.0-94.0","{""Q0"":""Blackburnian Warbler""}","Blackburnian Warbler","Wood-Warblers","874"
"","3201","image-multi-choice","96","568147","0.0-1.0-95.0","{""Q0"":""American Tree Sparrow""}","American Tree Sparrow","New World Sparrows and Allies","894"
"","2114","image-multi-choice","97","571271","0.0-1.0-96.0","{""Q0"":""White-throated Sparrow""}","White-throated Sparrow","New World Sparrows and Allies","764"
"","7475","image-multi-choice","98","579755","0.0-1.0-97.0","{""Q0"":""Orange-crowned Warbler""}","Orange-crowned Warbler","Wood-Warblers","867"
"","2382","image-multi-choice","99","583147","0.0-1.0-98.0","{""Q0"":""Yellow Warbler""}","Yellow Warbler","Wood-Warblers","875"
"","3341","image-multi-choice","100","587497","0.0-1.0-99.0","{""Q0"":""Fox Sparrow""}","Fox Sparrow","New World Sparrows and Allies","901"
"","2998","image-multi-choice","101","591505","0.0-1.0-100.0","{""Q0"":""Chipping Sparrow""}","Chipping Sparrow","New World Sparrows and Allies","769"
"","3345","image-multi-choice","102","595865","0.0-1.0-101.0","{""Q0"":""Northern Waterthrush""}","Northern Waterthrush","Wood-Warblers","862"
"","2887","image-multi-choice","103","599763","0.0-1.0-102.0","{""Q0"":""Swamp Sparrow""}","Swamp Sparrow","New World Sparrows and Allies","904"
"","3521","image-multi-choice","104","604295","0.0-1.0-103.0","{""Q0"":""Northern Waterthrush""}","Northern Waterthrush","Wood-Warblers","862"
"","2544","image-multi-choice","105","607849","0.0-1.0-104.0","{""Q0"":""Yellow Warbler""}","Yellow Warbler","Wood-Warblers","875"
"","5708","image-multi-choice","106","614567","0.0-1.0-105.0","{""Q0"":""Magnolia Warbler""}","Magnolia Warbler","Wood-Warblers","758"
"","4154","image-multi-choice","107","619731","0.0-1.0-106.0","{""Q0"":""Townsend's Warbler""}","Townsend's Warbler","Wood-Warblers","881"
"","3469","image-multi-choice","108","624209","0.0-1.0-107.0","{""Q0"":""Swamp Sparrow""}","Swamp Sparrow","New World Sparrows and Allies","904"
"","3052","image-multi-choice","109","628271","0.0-1.0-108.0","{""Q0"":""Fox Sparrow""}","Fox Sparrow","New World Sparrows and Allies","901"
"","1991","image-multi-choice","110","631271","0.0-1.0-109.0","{""Q0"":""Yellow Warbler""}","Yellow Warbler","Wood-Warblers","875"
"","3030","image-multi-choice","111","635317","0.0-1.0-110.0","{""Q0"":""Lincoln's Sparrow""}","Lincoln's Sparrow","New World Sparrows and Allies","903"
"","2702","image-multi-choice","112","639029","0.0-1.0-111.0","{""Q0"":""Townsend's Warbler""}","Townsend's Warbler","Wood-Warblers","881"
"","2348","image-multi-choice","113","642388","0.0-1.0-112.0","{""Q0"":""White-crowned Sparrow""}","White-crowned Sparrow","New World Sparrows and Allies","766"
"","7465","image-multi-choice","114","650864","0.0-1.0-113.0","{""Q0"":""Blackburnian Warbler""}","Blackburnian Warbler","Wood-Warblers","874"
"","6601","image-multi-choice","115","658474","0.0-1.0-114.0","{""Q0"":""Orange-crowned Warbler""}","Nashville Warbler","Wood-Warblers","868"
"","3213","image-multi-choice","116","662696","0.0-1.0-115.0","{""Q0"":""Tennessee Warbler""}","Tennessee Warbler","Wood-Warblers","866"
"","2448","image-multi-choice","117","666154","0.0-1.0-116.0","{""Q0"":""Vesper Sparrow""}","Vesper Sparrow","New World Sparrows and Allies","898"
"","4257","image-multi-choice","118","671420","0.0-1.0-117.0","{""Q0"":""Swamp Sparrow""}","Swamp Sparrow","New World Sparrows and Allies","904"
"","3951","image-multi-choice","119","676380","0.0-1.0-118.0","{""Q0"":""White-crowned Sparrow""}","White-crowned Sparrow","New World Sparrows and Allies","766"
"","3381","image-multi-choice","120","692510","0.0-1.0-119.0","{""Q0"":""Blackburnian Warbler""}","Blackburnian Warbler","Wood-Warblers","874"
"","3907","image-multi-choice","121","697428","0.0-1.0-120.0","{""Q0"":""Fox Sparrow""}","Fox Sparrow","New World Sparrows and Allies","901"
"","2903","image-multi-choice","122","701341","0.0-1.0-121.0","{""Q0"":""Vesper Sparrow""}","Vesper Sparrow","New World Sparrows and Allies","898"
"","1972","image-multi-choice","123","704325","0.0-1.0-122.0","{""Q0"":""Yellow Warbler""}","Yellow Warbler","Wood-Warblers","875"
"","6097","image-multi-choice","124","711433","0.0-1.0-123.0","{""Q0"":""Song Sparrow""}","Song Sparrow","New World Sparrows and Allies","902"
"","4913","image-multi-choice","125","717354","0.0-1.0-124.0","{""Q0"":""Townsend's Warbler""}","Townsend's Warbler","Wood-Warblers","881"
"","2756","image-multi-choice","126","721120","0.0-1.0-125.0","{""Q0"":""White-crowned Sparrow""}","White-crowned Sparrow","New World Sparrows and Allies","766"
"","3569","image-multi-choice","127","725699","0.0-1.0-126.0","{""Q0"":""Song Sparrow""}","Song Sparrow","New World Sparrows and Allies","902"
"","2481","image-multi-choice","128","729191","0.0-1.0-127.0","{""Q0"":""Ovenbird""}","Ovenbird","Wood-Warblers","860"
"","2703","image-multi-choice","129","732903","0.0-1.0-128.0","{""Q0"":""Magnolia Warbler""}","Magnolia Warbler","Wood-Warblers","758"
"","4356","image-multi-choice","130","738269","0.0-1.0-129.0","{""Q0"":""Swamp Sparrow""}","Swamp Sparrow","New World Sparrows and Allies","904"
"","3989","image-multi-choice","131","743269","0.0-1.0-130.0","{""Q0"":""Lark Sparrow""}","Lark Sparrow","New World Sparrows and Allies","899"
"","2634","image-multi-choice","132","746919","0.0-1.0-131.0","{""Q0"":""Magnolia Warbler""}","Magnolia Warbler","Wood-Warblers","758"
"","2529","image-multi-choice","133","750457","0.0-1.0-132.0","{""Q0"":""White-throated Sparrow""}","White-throated Sparrow","New World Sparrows and Allies","764"
"","3274","image-multi-choice","134","754739","0.0-1.0-133.0","{""Q0"":""Magnolia Warbler""}","Magnolia Warbler","Wood-Warblers","758"
"","2523","image-multi-choice","135","758272","0.0-1.0-134.0","{""Q0"":""Yellow Warbler""}","Yellow Warbler","Wood-Warblers","875"
"","4795","image-multi-choice","136","764075","0.0-1.0-135.0","{""Q0"":""Tennessee Warbler""}","Tennessee Warbler","Wood-Warblers","866"
"","2882","image-multi-choice","137","767965","0.0-1.0-136.0","{""Q0"":""Ovenbird""}","Ovenbird","Wood-Warblers","860"
"","3135","image-multi-choice","138","772112","0.0-1.0-137.0","{""Q0"":""Black-and-white Warbler""}","Black-and-white Warbler","Wood-Warblers","864"
"","3293","image-multi-choice","139","776417","0.0-1.0-138.0","{""Q0"":""Chipping Sparrow""}","Chipping Sparrow","New World Sparrows and Allies","769"
"","2921","image-multi-choice","140","780347","0.0-1.0-139.0","{""Q0"":""Northern Waterthrush""}","Northern Waterthrush","Wood-Warblers","862"
"","7310","image-multi-choice","141","788666","0.0-1.0-140.0","{""Q0"":""Vesper Sparrow""}","Vesper Sparrow","New World Sparrows and Allies","898"
"","2530","image-multi-choice","142","792207","0.0-1.0-141.0","{""Q0"":""White-throated Sparrow""}","White-throated Sparrow","New World Sparrows and Allies","764"
"","2411","image-multi-choice","143","795629","0.0-1.0-142.0","{""Q0"":""Magnolia Warbler""}","Magnolia Warbler","Wood-Warblers","758"
"","3655","image-multi-choice","144","800293","0.0-1.0-143.0","{""Q0"":""Blackburnian Warbler""}","Blackburnian Warbler","Wood-Warblers","874"
"","3434","image-multi-choice","145","804737","0.0-1.0-144.0","{""Q0"":""Lark Sparrow""}","Lark Sparrow","New World Sparrows and Allies","899"
"","5929","image-multi-choice","146","811675","0.0-1.0-145.0","{""Q0"":""Song Sparrow""}","Song Sparrow","New World Sparrows and Allies","902"
"","3099","image-multi-choice","147","815785","0.0-1.0-146.0","{""Q0"":""White-crowned Sparrow""}","White-crowned Sparrow","New World Sparrows and Allies","766"
"","5241","image-multi-choice","148","822035","0.0-1.0-147.0","{""Q0"":""Chipping Sparrow""}","Chipping Sparrow","New World Sparrows and Allies","769"
"","3191","image-multi-choice","149","826237","0.0-1.0-148.0","{""Q0"":""Swamp Sparrow""}","Swamp Sparrow","New World Sparrows and Allies","904"
"","2661","image-multi-choice","150","829909","0.0-1.0-149.0","{""Q0"":""Fox Sparrow""}","Fox Sparrow","New World Sparrows and Allies","901"
"","1695","image-multi-choice","151","832613","0.0-1.0-150.0","{""Q0"":""Yellow Warbler""}","Yellow Warbler","Wood-Warblers","875"
"","2364","image-multi-choice","152","835987","0.0-1.0-151.0","{""Q0"":""White-crowned Sparrow""}","White-crowned Sparrow","New World Sparrows and Allies","766"
"","4803","image-multi-choice","153","841799","0.0-1.0-152.0","{""Q0"":""Song Sparrow""}","Song Sparrow","New World Sparrows and Allies","902"
"","3669","image-multi-choice","154","846479","0.0-1.0-153.0","{""Q0"":""Northern Waterthrush""}","Northern Waterthrush","Wood-Warblers","862"
"","2147","image-multi-choice","155","849635","0.0-1.0-154.0","{""Q0"":""White-crowned Sparrow""}","White-crowned Sparrow","New World Sparrows and Allies","766"
"","1773","image-multi-choice","156","852417","0.0-1.0-155.0","{""Q0"":""Yellow Warbler""}","Yellow Warbler","Wood-Warblers","875"
"","3027","image-multi-choice","157","856455","0.0-1.0-156.0","{""Q0"":""White-throated Sparrow""}","White-throated Sparrow","New World Sparrows and Allies","764"
"","2264","image-multi-choice","158","859729","0.0-1.0-157.0","{""Q0"":""White-crowned Sparrow""}","White-crowned Sparrow","New World Sparrows and Allies","766"
"","3343","image-multi-choice","159","864081","0.0-1.0-158.0","{""Q0"":""Townsend's Warbler""}","Townsend's Warbler","Wood-Warblers","881"
"","3692","image-multi-choice","160","868783","0.0-1.0-159.0","{""Q0"":""Tennessee Warbler""}","Tennessee Warbler","Wood-Warblers","866"
"","1953","image-multi-choice","161","871744","0.0-1.0-160.0","{""Q0"":""White-throated Sparrow""}","White-throated Sparrow","New World Sparrows and Allies","764"
"","2928","image-multi-choice","162","875683","0.0-1.0-161.0","{""Q0"":""Fox Sparrow""}","Fox Sparrow","New World Sparrows and Allies","901"
"","4957","image-multi-choice","163","881651","0.0-1.0-162.0","{""Q0"":""Song Sparrow""}","Song Sparrow","New World Sparrows and Allies","902"
"","2113","image-multi-choice","164","884775","0.0-1.0-163.0","{""Q0"":""White-crowned Sparrow""}","White-crowned Sparrow","New World Sparrows and Allies","766"
"","7069","image-multi-choice","165","892853","0.0-1.0-164.0","{""Q0"":""Song Sparrow""}","Song Sparrow","New World Sparrows and Allies","902"
"","4390","image-multi-choice","166","898253","0.0-1.0-165.0","{""Q0"":""American Tree Sparrow""}","American Tree Sparrow","New World Sparrows and Allies","894"
"","10224","image-multi-choice","167","909487","0.0-1.0-166.0","{""Q0"":""Orange-crowned Warbler""}","Orange-crowned Warbler","Wood-Warblers","867"
"","2837","image-multi-choice","168","913337","0.0-1.0-167.0","{""Q0"":""Lincoln's Sparrow""}","Lincoln's Sparrow","New World Sparrows and Allies","903"
"","4233","image-multi-choice","169","918579","0.0-1.0-168.0","{""Q0"":""Blackburnian Warbler""}","Blackburnian Warbler","Wood-Warblers","874"
"","2163","image-multi-choice","170","921751","0.0-1.0-169.0","{""Q0"":""White-throated Sparrow""}","White-throated Sparrow","New World Sparrows and Allies","764"
"","2616","image-multi-choice","171","925377","0.0-1.0-170.0","{""Q0"":""Fox Sparrow""}","Fox Sparrow","New World Sparrows and Allies","901"
"","3053","image-multi-choice","172","929439","0.0-1.0-171.0","{""Q0"":""Chipping Sparrow""}","Chipping Sparrow","New World Sparrows and Allies","769"
"","15749","image-multi-choice","173","946197","0.0-1.0-172.0","{""Q0"":""White-throated Sparrow""}","Swamp Sparrow","New World Sparrows and Allies","904"
"","9109","image-multi-choice","174","956315","0.0-1.0-173.0","{""Q0"":""Lincoln's Sparrow""}","Lincoln's Sparrow","New World Sparrows and Allies","903"
"","3026","image-multi-choice","175","960353","0.0-1.0-174.0","{""Q0"":""Swamp Sparrow""}","Swamp Sparrow","New World Sparrows and Allies","904"
"","5888","image-multi-choice","176","967251","0.0-1.0-175.0","{""Q0"":""Townsend's Warbler""}","Townsend's Warbler","Wood-Warblers","881"
"","3326","image-multi-choice","177","971587","0.0-1.0-176.0","{""Q0"":""American Tree Sparrow""}","American Tree Sparrow","New World Sparrows and Allies","894"
"","4130","image-multi-choice","178","976727","0.0-1.0-177.0","{""Q0"":""Fox Sparrow""}","Fox Sparrow","New World Sparrows and Allies","901"
"","3225","image-multi-choice","179","980963","0.0-1.0-178.0","{""Q0"":""Lincoln's Sparrow""}","Lincoln's Sparrow","New World Sparrows and Allies","903"
"","3147","image-multi-choice","180","1006023","0.0-1.0-179.0","{""Q0"":""Magnolia Warbler""}","Magnolia Warbler","Wood-Warblers","758"
"","7251","image-multi-choice","181","1014283","0.0-1.0-180.0","{""Q0"":""Orange-crowned Warbler""}","Orange-crowned Warbler","Wood-Warblers","867"
"","8090","image-multi-choice","182","1023385","0.0-1.0-181.0","{""Q0"":""Yellow Warbler""}","Tennessee Warbler","Wood-Warblers","866"
"","2662","image-multi-choice","183","1027056","0.0-1.0-182.0","{""Q0"":""Vesper Sparrow""}","Vesper Sparrow","New World Sparrows and Allies","898"
"","4208","image-multi-choice","184","1032275","0.0-1.0-183.0","{""Q0"":""Blackburnian Warbler""}","Blackburnian Warbler","Wood-Warblers","874"
"","3233","image-multi-choice","185","1036517","0.0-1.0-184.0","{""Q0"":""Lincoln's Sparrow""}","Lincoln's Sparrow","New World Sparrows and Allies","903"
"","4436","image-multi-choice","186","1041962","0.0-1.0-185.0","{""Q0"":""Townsend's Warbler""}","Townsend's Warbler","Wood-Warblers","881"
"","3733","image-multi-choice","187","1046705","0.0-1.0-186.0","{""Q0"":""Ovenbird""}","Ovenbird","Wood-Warblers","860"
"","6179","image-multi-choice","188","1053893","0.0-1.0-187.0","{""Q0"":""Orange-crowned Warbler""}","Orange-crowned Warbler","Wood-Warblers","867"
"","3277","image-multi-choice","189","1058181","0.0-1.0-188.0","{""Q0"":""Chipping Sparrow""}","Chipping Sparrow","New World Sparrows and Allies","769"
"","3085","image-multi-choice","190","1062275","0.0-1.0-189.0","{""Q0"":""American Tree Sparrow""}","American Tree Sparrow","New World Sparrows and Allies","894"
"","6475","image-multi-choice","191","1069759","0.0-1.0-190.0","{""Q0"":""Vesper Sparrow""}","Vesper Sparrow","New World Sparrows and Allies","898"
"","3218","image-multi-choice","192","1073987","0.0-1.0-191.0","{""Q0"":""Lincoln's Sparrow""}","Lincoln's Sparrow","New World Sparrows and Allies","903"
"","6208","image-multi-choice","193","1081205","0.0-1.0-192.0","{""Q0"":""Tennessee Warbler""}","Tennessee Warbler","Wood-Warblers","866"
"","3364","image-multi-choice","194","1085579","0.0-1.0-193.0","{""Q0"":""American Tree Sparrow""}","American Tree Sparrow","New World Sparrows and Allies","894"
"","3390","image-multi-choice","195","1089979","0.0-1.0-194.0","{""Q0"":""Lark Sparrow""}","Lark Sparrow","New World Sparrows and Allies","899"
"","7442","image-multi-choice","196","1098431","0.0-1.0-195.0","{""Q0"":""Tennessee Warbler""}","Tennessee Warbler","Wood-Warblers","866"
"","4061","image-multi-choice","197","1103501","0.0-1.0-196.0","{""Q0"":""Northern Waterthrush""}","Northern Waterthrush","Wood-Warblers","862"
"","4241","image-multi-choice","198","1108751","0.0-1.0-197.0","{""Q0"":""White-throated Sparrow""}","White-throated Sparrow","New World Sparrows and Allies","764"
"","3381","image-multi-choice","199","1113141","0.0-1.0-198.0","{""Q0"":""Yellow Warbler""}","Yellow Warbler","Wood-Warblers","875"
"","4818","image-multi-choice","200","1118971","0.0-1.0-199.0","{""Q0"":""White-crowned Sparrow""}","White-crowned Sparrow","New World Sparrows and Allies","766"
"","4935","image-multi-choice","201","1124915","0.0-1.0-200.0","{""Q0"":""American Tree Sparrow""}","American Tree Sparrow","New World Sparrows and Allies","894"
"","3397","image-multi-choice","202","1129321","0.0-1.0-201.0","{""Q0"":""Ovenbird""}","Ovenbird","Wood-Warblers","860"
"","3833","image-multi-choice","203","1134165","0.0-1.0-202.0","{""Q0"":""Magnolia Warbler""}","Magnolia Warbler","Wood-Warblers","758"
"","2740","image-multi-choice","204","1137915","0.0-1.0-203.0","{""Q0"":""Black-and-white Warbler""}","Black-and-white Warbler","Wood-Warblers","864"
"","2919","image-multi-choice","205","1141845","0.0-1.0-204.0","{""Q0"":""Northern Waterthrush""}","Northern Waterthrush","Wood-Warblers","862"
"","2889","image-multi-choice","206","1145743","0.0-1.0-205.0","{""Q0"":""American Tree Sparrow""}","American Tree Sparrow","New World Sparrows and Allies","894"
"","2990","image-multi-choice","207","1149743","0.0-1.0-206.0","{""Q0"":""Magnolia Warbler""}","Magnolia Warbler","Wood-Warblers","758"
"","6982","image-multi-choice","208","1157735","0.0-1.0-207.0","{""Q0"":""Blackburnian Warbler""}","Blackburnian Warbler","Wood-Warblers","874"
"","3482","image-multi-choice","209","1162227","0.0-1.0-208.0","{""Q0"":""Swamp Sparrow""}","Swamp Sparrow","New World Sparrows and Allies","904"
"","2719","image-multi-choice","210","1165955","0.0-1.0-209.0","{""Q0"":""American Tree Sparrow""}","American Tree Sparrow","New World Sparrows and Allies","894"
"","3138","image-multi-choice","211","1170103","0.0-1.0-210.0","{""Q0"":""Ovenbird""}","Ovenbird","Wood-Warblers","860"
"","2595","image-multi-choice","212","1173711","0.0-1.0-211.0","{""Q0"":""Swamp Sparrow""}","Swamp Sparrow","New World Sparrows and Allies","904"
"","4188","image-multi-choice","213","1178907","0.0-1.0-212.0","{""Q0"":""Song Sparrow""}","Song Sparrow","New World Sparrows and Allies","902"
"","2607","image-multi-choice","214","1182523","0.0-1.0-213.0","{""Q0"":""Blackburnian Warbler""}","Blackburnian Warbler","Wood-Warblers","874"
"","3265","image-multi-choice","215","1186796","0.0-1.0-214.0","{""Q0"":""Vesper Sparrow""}","Vesper Sparrow","New World Sparrows and Allies","898"
"","2820","image-multi-choice","216","1190625","0.0-1.0-215.0","{""Q0"":""Blackburnian Warbler""}","Blackburnian Warbler","Wood-Warblers","874"
"","3695","image-multi-choice","217","1195329","0.0-1.0-216.0","{""Q0"":""Song Sparrow""}","Song Sparrow","New World Sparrows and Allies","902"
"","4932","image-multi-choice","218","1201273","0.0-1.0-217.0","{""Q0"":""Tennessee Warbler""}","Tennessee Warbler","Wood-Warblers","866"
"","3328","image-multi-choice","219","1205609","0.0-1.0-218.0","{""Q0"":""Black-and-white Warbler""}","Black-and-white Warbler","Wood-Warblers","864"
"","3047","image-multi-choice","220","1209665","0.0-1.0-219.0","{""Q0"":""Ovenbird""}","Ovenbird","Wood-Warblers","860"
"","3005","image-multi-choice","221","1213679","0.0-1.0-220.0","{""Q0"":""White-throated Sparrow""}","White-throated Sparrow","New World Sparrows and Allies","764"
"","2506","image-multi-choice","222","1217195","0.0-1.0-221.0","{""Q0"":""Vesper Sparrow""}","Vesper Sparrow","New World Sparrows and Allies","898"
"","2398","image-multi-choice","223","1220601","0.0-1.0-222.0","{""Q0"":""American Tree Sparrow""}","American Tree Sparrow","New World Sparrows and Allies","894"
"","1642","image-multi-choice","224","1223251","0.0-1.0-223.0","{""Q0"":""Yellow Warbler""}","Yellow Warbler","Wood-Warblers","875"
"","3398","image-multi-choice","225","1227657","0.0-1.0-224.0","{""Q0"":""Northern Waterthrush""}","Northern Waterthrush","Wood-Warblers","862"
"","3686","image-multi-choice","226","1232351","0.0-1.0-225.0","{""Q0"":""Blackburnian Warbler""}","Blackburnian Warbler","Wood-Warblers","874"
"","1992","image-multi-choice","227","1235351","0.0-1.0-226.0","{""Q0"":""White-throated Sparrow""}","White-throated Sparrow","New World Sparrows and Allies","764"
"","3672","image-multi-choice","228","1240031","0.0-1.0-227.0","{""Q0"":""Song Sparrow""}","Song Sparrow","New World Sparrows and Allies","902"
"","3193","image-multi-choice","229","1244235","0.0-1.0-228.0","{""Q0"":""Ovenbird""}","Ovenbird","Wood-Warblers","860"
"","3435","image-multi-choice","230","1248679","0.0-1.0-229.0","{""Q0"":""Townsend's Warbler""}","Townsend's Warbler","Wood-Warblers","881"
"","4960","image-multi-choice","231","1254649","0.0-1.0-230.0","{""Q0"":""Nashville Warbler""}","Nashville Warbler","Wood-Warblers","868"
"","3241","image-multi-choice","232","1258899","0.0-1.0-231.0","{""Q0"":""Fox Sparrow""}","Fox Sparrow","New World Sparrows and Allies","901"
"","3239","image-multi-choice","233","1263149","0.0-1.0-232.0","{""Q0"":""Ovenbird""}","Ovenbird","Wood-Warblers","860"
"","2927","image-multi-choice","234","1267085","0.0-1.0-233.0","{""Q0"":""Magnolia Warbler""}","Magnolia Warbler","Wood-Warblers","758"
"","2813","image-multi-choice","235","1270907","0.0-1.0-234.0","{""Q0"":""American Tree Sparrow""}","American Tree Sparrow","New World Sparrows and Allies","894"
"","2833","image-multi-choice","236","1274749","0.0-1.0-235.0","{""Q0"":""Blackburnian Warbler""}","Blackburnian Warbler","Wood-Warblers","874"
"","2789","image-multi-choice","237","1278547","0.0-1.0-236.0","{""Q0"":""Chipping Sparrow""}","Chipping Sparrow","New World Sparrows and Allies","769"
"","3161","image-multi-choice","238","1282719","0.0-1.0-237.0","{""Q0"":""Fox Sparrow""}","Fox Sparrow","New World Sparrows and Allies","901"
"","3052","image-multi-choice","239","1286781","0.0-1.0-238.0","{""Q0"":""Vesper Sparrow""}","Vesper Sparrow","New World Sparrows and Allies","898"
"","2974","image-multi-choice","240","1297989","0.0-1.0-239.0","{""Q0"":""Northern Waterthrush""}","Northern Waterthrush","Wood-Warblers","862"
"","3915","image-multi-choice","241","1302913","0.0-1.0-240.0","{""Q0"":""Lark Sparrow""}","Lark Sparrow","New World Sparrows and Allies","899"
"","4459","image-multi-choice","242","1308381","0.0-1.0-241.0","{""Q0"":""Nashville Warbler""}","Nashville Warbler","Wood-Warblers","868"
"","3211","image-multi-choice","243","1312602","0.0-1.0-242.0","{""Q0"":""Ovenbird""}","Ovenbird","Wood-Warblers","860"
"","2872","image-multi-choice","244","1316483","0.0-1.0-243.0","{""Q0"":""Northern Waterthrush""}","Northern Waterthrush","Wood-Warblers","862"
"","6085","image-multi-choice","245","1323577","0.0-1.0-244.0","{""Q0"":""Orange-crowned Warbler""}","Orange-crowned Warbler","Wood-Warblers","867"
"","3530","image-multi-choice","246","1328117","0.0-1.0-245.0","{""Q0"":""Chipping Sparrow""}","Chipping Sparrow","New World Sparrows and Allies","769"
"","4177","image-multi-choice","247","1333303","0.0-1.0-246.0","{""Q0"":""Tennessee Warbler""}","Tennessee Warbler","Wood-Warblers","866"
"","2218","image-multi-choice","248","1336531","0.0-1.0-247.0","{""Q0"":""Yellow Warbler""}","Yellow Warbler","Wood-Warblers","875"
"","4396","image-multi-choice","249","1341937","0.0-1.0-248.0","{""Q0"":""Lincoln's Sparrow""}","Lincoln's Sparrow","New World Sparrows and Allies","903"
"","2918","image-multi-choice","250","1345865","0.0-1.0-249.0","{""Q0"":""Vesper Sparrow""}","Vesper Sparrow","New World Sparrows and Allies","898"
"","2763","image-multi-choice","251","1349639","0.0-1.0-250.0","{""Q0"":""Black-and-white Warbler""}","Black-and-white Warbler","Wood-Warblers","864"
"","3952","image-multi-choice","252","1354601","0.0-1.0-251.0","{""Q0"":""Song Sparrow""}","Song Sparrow","New World Sparrows and Allies","902"
"","3183","image-multi-choice","253","1358795","0.0-1.0-252.0","{""Q0"":""Chipping Sparrow""}","Chipping Sparrow","New World Sparrows and Allies","769"
"","2842","image-multi-choice","254","1362647","0.0-1.0-253.0","{""Q0"":""Magnolia Warbler""}","Magnolia Warbler","Wood-Warblers","758"
"","3092","image-multi-choice","255","1366749","0.0-1.0-254.0","{""Q0"":""Lincoln's Sparrow""}","Lincoln's Sparrow","New World Sparrows and Allies","903"
"","2249","image-multi-choice","256","1370007","0.0-1.0-255.0","{""Q0"":""White-throated Sparrow""}","White-throated Sparrow","New World Sparrows and Allies","764"
"","3614","image-multi-choice","257","1374631","0.0-1.0-256.0","{""Q0"":""Fox Sparrow""}","Fox Sparrow","New World Sparrows and Allies","901"
"","3042","image-multi-choice","258","1378685","0.0-1.0-257.0","{""Q0"":""Black-and-white Warbler""}","Black-and-white Warbler","Wood-Warblers","864"
"","2907","image-multi-choice","259","1382601","0.0-1.0-258.0","{""Q0"":""Chipping Sparrow""}","Chipping Sparrow","New World Sparrows and Allies","769"
"","6951","image-multi-choice","260","1390561","0.0-1.0-259.0","{""Q0"":""Orange-crowned Warbler""}","Orange-crowned Warbler","Wood-Warblers","867"
"","3007","image-multi-choice","261","1394577","0.0-1.0-260.0","{""Q0"":""Lark Sparrow""}","Lark Sparrow","New World Sparrows and Allies","899"
"","3240","image-multi-choice","262","1398827","0.0-1.0-261.0","{""Q0"":""Lincoln's Sparrow""}","Lincoln's Sparrow","New World Sparrows and Allies","903"
"","3589","image-multi-choice","263","1403427","0.0-1.0-262.0","{""Q0"":""Northern Waterthrush""}","Northern Waterthrush","Wood-Warblers","862"
"","3898","image-multi-choice","264","1408335","0.0-1.0-263.0","{""Q0"":""Nashville Warbler""}","Nashville Warbler","Wood-Warblers","868"
"","3519","image-multi-choice","265","1412865","0.0-1.0-264.0","{""Q0"":""Lark Sparrow""}","Lark Sparrow","New World Sparrows and Allies","899"
"","3912","image-multi-choice","266","1417787","0.0-1.0-265.0","{""Q0"":""Orange-crowned Warbler""}","Orange-crowned Warbler","Wood-Warblers","867"
"","2694","image-multi-choice","267","1421491","0.0-1.0-266.0","{""Q0"":""Magnolia Warbler""}","Magnolia Warbler","Wood-Warblers","758"
"","4701","image-multi-choice","268","1427201","0.0-1.0-267.0","{""Q0"":""Orange-crowned Warbler""}","Orange-crowned Warbler","Wood-Warblers","867"
"","2034","image-multi-choice","269","1430247","0.0-1.0-268.0","{""Q0"":""Yellow Warbler""}","Yellow Warbler","Wood-Warblers","875"
"","6031","image-multi-choice","270","1437287","0.0-1.0-269.0","{""Q0"":""Orange-crowned Warbler""}","Orange-crowned Warbler","Wood-Warblers","867"
"","3022","image-multi-choice","271","1441319","0.0-1.0-270.0","{""Q0"":""Lincoln's Sparrow""}","Lincoln's Sparrow","New World Sparrows and Allies","903"
"","2990","image-multi-choice","272","1445319","0.0-1.0-271.0","{""Q0"":""Lark Sparrow""}","Lark Sparrow","New World Sparrows and Allies","899"
"","2724","image-multi-choice","273","1449053","0.0-1.0-272.0","{""Q0"":""Lincoln's Sparrow""}","Lincoln's Sparrow","New World Sparrows and Allies","903"
"","6942","image-multi-choice","274","1457005","0.0-1.0-273.0","{""Q0"":""Nashville Warbler""}","Nashville Warbler","Wood-Warblers","868"
"","2888","image-multi-choice","275","1460903","0.0-1.0-274.0","{""Q0"":""Lark Sparrow""}","Lark Sparrow","New World Sparrows and Allies","899"
"","2812","image-multi-choice","276","1464725","0.0-1.0-275.0","{""Q0"":""Chipping Sparrow""}","Chipping Sparrow","New World Sparrows and Allies","769"
"","3183","image-multi-choice","277","1468919","0.0-1.0-276.0","{""Q0"":""White-throated Sparrow""}","White-throated Sparrow","New World Sparrows and Allies","764"
"","4030","image-multi-choice","278","1473959","0.0-1.0-277.0","{""Q0"":""Song Sparrow""}","Song Sparrow","New World Sparrows and Allies","902"
"","2942","image-multi-choice","279","1477911","0.0-1.0-278.0","{""Q0"":""Ovenbird""}","Ovenbird","Wood-Warblers","860"
"","2943","image-multi-choice","280","1481865","0.0-1.0-279.0","{""Q0"":""Lark Sparrow""}","Lark Sparrow","New World Sparrows and Allies","899"
"","2327","image-multi-choice","281","1485201","0.0-1.0-280.0","{""Q0"":""Chipping Sparrow""}","Chipping Sparrow","New World Sparrows and Allies","769"
"","2590","image-multi-choice","282","1488801","0.0-1.0-281.0","{""Q0"":""Lark Sparrow""}","Lark Sparrow","New World Sparrows and Allies","899"
"","3421","image-multi-choice","283","1493231","0.0-1.0-282.0","{""Q0"":""Song Sparrow""}","Song Sparrow","New World Sparrows and Allies","902"
"","2319","image-multi-choice","284","1496559","0.0-1.0-283.0","{""Q0"":""White-throated Sparrow""}","White-throated Sparrow","New World Sparrows and Allies","764"
"","2866","image-multi-choice","285","1500435","0.0-1.0-284.0","{""Q0"":""Magnolia Warbler""}","Magnolia Warbler","Wood-Warblers","758"
"","7318","image-multi-choice","286","1508763","0.0-1.0-285.0","{""Q0"":""Orange-crowned Warbler""}","Orange-crowned Warbler","Wood-Warblers","867"
"","2793","image-multi-choice","287","1512567","0.0-1.0-286.0","{""Q0"":""Lincoln's Sparrow""}","Lincoln's Sparrow","New World Sparrows and Allies","903"
"","2989","image-multi-choice","288","1516567","0.0-1.0-287.0","{""Q0"":""Lark Sparrow""}","Lark Sparrow","New World Sparrows and Allies","899"
"","2905","image-multi-choice","289","1520481","0.0-1.0-288.0","{""Q0"":""Townsend's Warbler""}","Townsend's Warbler","Wood-Warblers","881"
"","3296","image-multi-choice","290","1524787","0.0-1.0-289.0","{""Q0"":""Black-and-white Warbler""}","Black-and-white Warbler","Wood-Warblers","864"
"","2940","image-multi-choice","291","1528739","0.0-1.0-290.0","{""Q0"":""Tennessee Warbler""}","Tennessee Warbler","Wood-Warblers","866"
"","3029","image-multi-choice","292","1532777","0.0-1.0-291.0","{""Q0"":""Chipping Sparrow""}","American Tree Sparrow","New World Sparrows and Allies","894"
"","3037","image-multi-choice","293","1536825","0.0-1.0-292.0","{""Q0"":""Chipping Sparrow""}","Chipping Sparrow","New World Sparrows and Allies","769"
"","3240","image-multi-choice","294","1541075","0.0-1.0-293.0","{""Q0"":""Lark Sparrow""}","Lark Sparrow","New World Sparrows and Allies","899"
"","2434","image-multi-choice","295","1544519","0.0-1.0-294.0","{""Q0"":""Magnolia Warbler""}","Magnolia Warbler","Wood-Warblers","758"
"","3390","image-multi-choice","296","1548919","0.0-1.0-295.0","{""Q0"":""Yellow Warbler""}","Yellow Warbler","Wood-Warblers","875"
"","2639","image-multi-choice","297","1552567","0.0-1.0-296.0","{""Q0"":""White-crowned Sparrow""}","White-crowned Sparrow","New World Sparrows and Allies","766"
"","7154","image-multi-choice","298","1560731","0.0-1.0-297.0","{""Q0"":""Song Sparrow""}","Swamp Sparrow","New World Sparrows and Allies","904"
"","11077","image-multi-choice","299","1572817","0.0-1.0-298.0","{""Q0"":""Tennessee Warbler""}","Orange-crowned Warbler","Wood-Warblers","867"
"","2767","image-multi-choice","300","1584018","0.0-1.0-299.0","{""Q0"":""Vesper Sparrow""}","Vesper Sparrow","New World Sparrows and Allies","898"
"[{""page_index"":0,""viewing_time"":4537}]","4538","instructions","301","1589559","0.0-2.0","","","",""
