[{"view_history":"[{\"page_index\":0,\"viewing_time\":151772}]","rt":151772,"trial_type":"instructions","trial_index":0,"time_elapsed":151773,"internal_node_id":"0.0-0.0"},{"rt":7017,"responses":"{\"Q0\":\"Magnolia Warbler\"}","bird":["Townsend's Warbler"],"family":["Wood-Warblers"],"class":["881"],"trial_type":"image-multi-choice","trial_index":1,"time_elapsed":159809,"internal_node_id":"0.0-1.0-0.0"},{"rt":3013,"responses":"{\"Q0\":\"American Tree Sparrow\"}","bird":["Lark Sparrow"],"family":["New World Sparrows and Allies"],"class":["899"],"trial_type":"image-multi-choice","trial_index":2,"time_elapsed":163835,"internal_node_id":"0.0-1.0-1.0"},{"rt":2401,"responses":"{\"Q0\":\"Lincoln's Sparrow\"}","bird":["White-crowned Sparrow"],"family":["New World Sparrows and Allies"],"class":["766"],"trial_type":"image-multi-choice","trial_index":3,"time_elapsed":167245,"internal_node_id":"0.0-1.0-2.0"},{"rt":1707,"responses":"{\"Q0\":\"Song Sparrow\"}","bird":["Lark Sparrow"],"family":["New World Sparrows and Allies"],"class":["899"],"trial_type":"image-multi-choice","trial_index":4,"time_elapsed":169963,"internal_node_id":"0.0-1.0-3.0"},{"rt":1610,"responses":"{\"Q0\":\"Townsend's Warbler\"}","bird":["White-throated Sparrow"],"family":["New World Sparrows and Allies"],"class":["764"],"trial_type":"image-multi-choice","trial_index":5,"time_elapsed":172584,"internal_node_id":"0.0-1.0-4.0"},{"rt":2239,"responses":"{\"Q0\":\"Tennessee Warbler\"}","bird":["White-crowned Sparrow"],"family":["New World Sparrows and Allies"],"class":["766"],"trial_type":"image-multi-choice","trial_index":6,"time_elapsed":175831,"internal_node_id":"0.0-1.0-5.0"},{"rt":3025,"responses":"{\"Q0\":\"Blackburnian Warbler\"}","bird":["Tennessee Warbler"],"family":["Wood-Warblers"],"class":["866"],"trial_type":"image-multi-choice","trial_index":7,"time_elapsed":179866,"internal_node_id":"0.0-1.0-6.0"},{"rt":4169,"responses":"{\"Q0\":\"Magnolia Warbler\"}","bird":["White-crowned Sparrow"],"family":["New World Sparrows and Allies"],"class":["766"],"trial_type":"image-multi-choice","trial_index":8,"time_elapsed":185044,"internal_node_id":"0.0-1.0-7.0"},{"rt":2668,"responses":"{\"Q0\":\"White-crowned Sparrow\"}","bird":["Orange-crowned Warbler"],"family":["Wood-Warblers"],"class":["867"],"trial_type":"image-multi-choice","trial_index":9,"time_elapsed":188722,"internal_node_id":"0.0-1.0-8.0"},{"rt":3528,"responses":"{\"Q0\":\"Yellow Warbler\"}","bird":["Swamp Sparrow"],"family":["New World Sparrows and Allies"],"class":["904"],"trial_type":"image-multi-choice","trial_index":10,"time_elapsed":193257,"internal_node_id":"0.0-1.0-9.0"},{"rt":2081,"responses":"{\"Q0\":\"Ovenbird\"}","bird":["Orange-crowned Warbler"],"family":["Wood-Warblers"],"class":["867"],"trial_type":"image-multi-choice","trial_index":11,"time_elapsed":196348,"internal_node_id":"0.0-1.0-10.0"},{"rt":3174,"responses":"{\"Q0\":\"Lark Sparrow\"}","bird":["White-crowned Sparrow"],"family":["New World Sparrows and Allies"],"class":["766"],"trial_type":"image-multi-choice","trial_index":12,"time_elapsed":200529,"internal_node_id":"0.0-1.0-11.0"},{"rt":4393,"responses":"{\"Q0\":\"Black-and-white Warbler\"}","bird":["Townsend's Warbler"],"family":["Wood-Warblers"],"class":["881"],"trial_type":"image-multi-choice","trial_index":13,"time_elapsed":205930,"internal_node_id":"0.0-1.0-12.0"},{"rt":3856,"responses":"{\"Q0\":\"Chipping Sparrow\"}","bird":["Lincoln's Sparrow"],"family":["New World Sparrows and Allies"],"class":["903"],"trial_type":"image-multi-choice","trial_index":14,"time_elapsed":210796,"internal_node_id":"0.0-1.0-13.0"},{"rt":3218,"responses":"{\"Q0\":\"Northern Waterthrush\"}","bird":["Ovenbird"],"family":["Wood-Warblers"],"class":["860"],"trial_type":"image-multi-choice","trial_index":15,"time_elapsed":215022,"internal_node_id":"0.0-1.0-14.0"},{"rt":2970,"responses":"{\"Q0\":\"Vesper Sparrow\"}","bird":["Tennessee Warbler"],"family":["Wood-Warblers"],"class":["866"],"trial_type":"image-multi-choice","trial_index":16,"time_elapsed":219001,"internal_node_id":"0.0-1.0-15.0"},{"rt":2296,"responses":"{\"Q0\":\"White-throated Sparrow\"}","bird":["Vesper Sparrow"],"family":["New World Sparrows and Allies"],"class":["898"],"trial_type":"image-multi-choice","trial_index":17,"time_elapsed":222306,"internal_node_id":"0.0-1.0-16.0"},{"rt":2865,"responses":"{\"Q0\":\"Black-and-white Warbler\"}","bird":["Tennessee Warbler"],"family":["Wood-Warblers"],"class":["866"],"trial_type":"image-multi-choice","trial_index":18,"time_elapsed":226180,"internal_node_id":"0.0-1.0-17.0"},{"rt":3727,"responses":"{\"Q0\":\"Lark Sparrow\"}","bird":["Vesper Sparrow"],"family":["New World Sparrows and Allies"],"class":["898"],"trial_type":"image-multi-choice","trial_index":19,"time_elapsed":230918,"internal_node_id":"0.0-1.0-18.0"},{"rt":5273,"responses":"{\"Q0\":\"Orange-crowned Warbler\"}","bird":["Song Sparrow"],"family":["New World Sparrows and Allies"],"class":["902"],"trial_type":"image-multi-choice","trial_index":20,"time_elapsed":237199,"internal_node_id":"0.0-1.0-19.0"},{"rt":2784,"responses":"{\"Q0\":\"Northern Waterthrush\"}","bird":["Magnolia Warbler"],"family":["Wood-Warblers"],"class":["758"],"trial_type":"image-multi-choice","trial_index":21,"time_elapsed":240991,"internal_node_id":"0.0-1.0-20.0"},{"rt":2985,"responses":"{\"Q0\":\"Swamp Sparrow\"}","bird":["Orange-crowned Warbler"],"family":["Wood-Warblers"],"class":["867"],"trial_type":"image-multi-choice","trial_index":22,"time_elapsed":244983,"internal_node_id":"0.0-1.0-21.0"},{"rt":1946,"responses":"{\"Q0\":\"Tennessee Warbler\"}","bird":["Townsend's Warbler"],"family":["Wood-Warblers"],"class":["881"],"trial_type":"image-multi-choice","trial_index":23,"time_elapsed":247937,"internal_node_id":"0.0-1.0-22.0"},{"rt":4183,"responses":"{\"Q0\":\"Blackburnian Warbler\"}","bird":["Ovenbird"],"family":["Wood-Warblers"],"class":["860"],"trial_type":"image-multi-choice","trial_index":24,"time_elapsed":253128,"internal_node_id":"0.0-1.0-23.0"},{"rt":4176,"responses":"{\"Q0\":\"Lincoln's Sparrow\"}","bird":["Lincoln's Sparrow"],"family":["New World Sparrows and Allies"],"class":["903"],"trial_type":"image-multi-choice","trial_index":25,"time_elapsed":258313,"internal_node_id":"0.0-1.0-24.0"},{"rt":5480,"responses":"{\"Q0\":\"White-throated Sparrow\"}","bird":["White-throated Sparrow"],"family":["New World Sparrows and Allies"],"class":["764"],"trial_type":"image-multi-choice","trial_index":26,"time_elapsed":264802,"internal_node_id":"0.0-1.0-25.0"},{"rt":5706,"responses":"{\"Q0\":\"Fox Sparrow\"}","bird":["Ovenbird"],"family":["Wood-Warblers"],"class":["860"],"trial_type":"image-multi-choice","trial_index":27,"time_elapsed":271517,"internal_node_id":"0.0-1.0-26.0"},{"rt":4613,"responses":"{\"Q0\":\"Orange-crowned Warbler\"}","bird":["Chipping Sparrow"],"family":["New World Sparrows and Allies"],"class":["769"],"trial_type":"image-multi-choice","trial_index":28,"time_elapsed":277139,"internal_node_id":"0.0-1.0-27.0"},{"rt":2975,"responses":"{\"Q0\":\"Swamp Sparrow\"}","bird":["Fox Sparrow"],"family":["New World Sparrows and Allies"],"class":["901"],"trial_type":"image-multi-choice","trial_index":29,"time_elapsed":281122,"internal_node_id":"0.0-1.0-28.0"},{"rt":2153,"responses":"{\"Q0\":\"Chipping Sparrow\"}","bird":["Magnolia Warbler"],"family":["Wood-Warblers"],"class":["758"],"trial_type":"image-multi-choice","trial_index":30,"time_elapsed":284283,"internal_node_id":"0.0-1.0-29.0"},{"rt":4603,"responses":"{\"Q0\":\"Chipping Sparrow\"}","bird":["Northern Waterthrush"],"family":["Wood-Warblers"],"class":["862"],"trial_type":"image-multi-choice","trial_index":31,"time_elapsed":289895,"internal_node_id":"0.0-1.0-30.0"},{"rt":3947,"responses":"{\"Q0\":\"Fox Sparrow\"}","bird":["Tennessee Warbler"],"family":["Wood-Warblers"],"class":["866"],"trial_type":"image-multi-choice","trial_index":32,"time_elapsed":294851,"internal_node_id":"0.0-1.0-31.0"},{"rt":3038,"responses":"{\"Q0\":\"Northern Waterthrush\"}","bird":["Magnolia Warbler"],"family":["Wood-Warblers"],"class":["758"],"trial_type":"image-multi-choice","trial_index":33,"time_elapsed":298900,"internal_node_id":"0.0-1.0-32.0"},{"rt":3061,"responses":"{\"Q0\":\"Magnolia Warbler\"}","bird":["Song Sparrow"],"family":["New World Sparrows and Allies"],"class":["902"],"trial_type":"image-multi-choice","trial_index":34,"time_elapsed":302968,"internal_node_id":"0.0-1.0-33.0"},{"rt":1616,"responses":"{\"Q0\":\"Townsend's Warbler\"}","bird":["Lark Sparrow"],"family":["New World Sparrows and Allies"],"class":["899"],"trial_type":"image-multi-choice","trial_index":35,"time_elapsed":305592,"internal_node_id":"0.0-1.0-34.0"},{"rt":5230,"responses":"{\"Q0\":\"White-throated Sparrow\"}","bird":["Nashville Warbler"],"family":["Wood-Warblers"],"class":["868"],"trial_type":"image-multi-choice","trial_index":36,"time_elapsed":311829,"internal_node_id":"0.0-1.0-35.0"},{"rt":2871,"responses":"{\"Q0\":\"Blackburnian Warbler\"}","bird":["Northern Waterthrush"],"family":["Wood-Warblers"],"class":["862"],"trial_type":"image-multi-choice","trial_index":37,"time_elapsed":315709,"internal_node_id":"0.0-1.0-36.0"},{"rt":1943,"responses":"{\"Q0\":\"Northern Waterthrush\"}","bird":["Chipping Sparrow"],"family":["New World Sparrows and Allies"],"class":["769"],"trial_type":"image-multi-choice","trial_index":38,"time_elapsed":318663,"internal_node_id":"0.0-1.0-37.0"},{"rt":2329,"responses":"{\"Q0\":\"Lincoln's Sparrow\"}","bird":["Yellow Warbler"],"family":["Wood-Warblers"],"class":["875"],"trial_type":"image-multi-choice","trial_index":39,"time_elapsed":322001,"internal_node_id":"0.0-1.0-38.0"},{"rt":3290,"responses":"{\"Q0\":\"Lark Sparrow\"}","bird":["Ovenbird"],"family":["Wood-Warblers"],"class":["860"],"trial_type":"image-multi-choice","trial_index":40,"time_elapsed":326299,"internal_node_id":"0.0-1.0-39.0"},{"rt":2863,"responses":"{\"Q0\":\"Swamp Sparrow\"}","bird":["Black-and-white Warbler"],"family":["Wood-Warblers"],"class":["864"],"trial_type":"image-multi-choice","trial_index":41,"time_elapsed":330169,"internal_node_id":"0.0-1.0-40.0"},{"rt":2096,"responses":"{\"Q0\":\"Magnolia Warbler\"}","bird":["Tennessee Warbler"],"family":["Wood-Warblers"],"class":["866"],"trial_type":"image-multi-choice","trial_index":42,"time_elapsed":333273,"internal_node_id":"0.0-1.0-41.0"},{"rt":2205,"responses":"{\"Q0\":\"Lincoln's Sparrow\"}","bird":["Song Sparrow"],"family":["New World Sparrows and Allies"],"class":["902"],"trial_type":"image-multi-choice","trial_index":43,"time_elapsed":336488,"internal_node_id":"0.0-1.0-42.0"},{"rt":2504,"responses":"{\"Q0\":\"Ovenbird\"}","bird":["Blackburnian Warbler"],"family":["Wood-Warblers"],"class":["874"],"trial_type":"image-multi-choice","trial_index":44,"time_elapsed":340001,"internal_node_id":"0.0-1.0-43.0"},{"rt":2897,"responses":"{\"Q0\":\"Tennessee Warbler\"}","bird":["Black-and-white Warbler"],"family":["Wood-Warblers"],"class":["864"],"trial_type":"image-multi-choice","trial_index":45,"time_elapsed":343906,"internal_node_id":"0.0-1.0-44.0"},{"rt":3255,"responses":"{\"Q0\":\"Magnolia Warbler\"}","bird":["Magnolia Warbler"],"family":["Wood-Warblers"],"class":["758"],"trial_type":"image-multi-choice","trial_index":46,"time_elapsed":348168,"internal_node_id":"0.0-1.0-45.0"},{"rt":2282,"responses":"{\"Q0\":\"Townsend's Warbler\"}","bird":["Ovenbird"],"family":["Wood-Warblers"],"class":["860"],"trial_type":"image-multi-choice","trial_index":47,"time_elapsed":351462,"internal_node_id":"0.0-1.0-46.0"},{"rt":4444,"responses":"{\"Q0\":\"Orange-crowned Warbler\"}","bird":["Vesper Sparrow"],"family":["New World Sparrows and Allies"],"class":["898"],"trial_type":"image-multi-choice","trial_index":48,"time_elapsed":356915,"internal_node_id":"0.0-1.0-47.0"},{"rt":1587,"responses":"{\"Q0\":\"Lark Sparrow\"}","bird":["Lark Sparrow"],"family":["New World Sparrows and Allies"],"class":["899"],"trial_type":"image-multi-choice","trial_index":49,"time_elapsed":359510,"internal_node_id":"0.0-1.0-48.0"},{"rt":2524,"responses":"{\"Q0\":\"Fox Sparrow\"}","bird":["Black-and-white Warbler"],"family":["Wood-Warblers"],"class":["864"],"trial_type":"image-multi-choice","trial_index":50,"time_elapsed":363043,"internal_node_id":"0.0-1.0-49.0"},{"rt":2061,"responses":"{\"Q0\":\"Blackburnian Warbler\"}","bird":["Townsend's Warbler"],"family":["Wood-Warblers"],"class":["881"],"trial_type":"image-multi-choice","trial_index":51,"time_elapsed":366113,"internal_node_id":"0.0-1.0-50.0"},{"rt":2054,"responses":"{\"Q0\":\"Lark Sparrow\"}","bird":["Nashville Warbler"],"family":["Wood-Warblers"],"class":["868"],"trial_type":"image-multi-choice","trial_index":52,"time_elapsed":369175,"internal_node_id":"0.0-1.0-51.0"},{"rt":1762,"responses":"{\"Q0\":\"Lincoln's Sparrow\"}","bird":["Chipping Sparrow"],"family":["New World Sparrows and Allies"],"class":["769"],"trial_type":"image-multi-choice","trial_index":53,"time_elapsed":371945,"internal_node_id":"0.0-1.0-52.0"},{"rt":2318,"responses":"{\"Q0\":\"Chipping Sparrow\"}","bird":["Swamp Sparrow"],"family":["New World Sparrows and Allies"],"class":["904"],"trial_type":"image-multi-choice","trial_index":54,"time_elapsed":375273,"internal_node_id":"0.0-1.0-53.0"},{"rt":2371,"responses":"{\"Q0\":\"Blackburnian Warbler\"}","bird":["White-crowned Sparrow"],"family":["New World Sparrows and Allies"],"class":["766"],"trial_type":"image-multi-choice","trial_index":55,"time_elapsed":378651,"internal_node_id":"0.0-1.0-54.0"},{"rt":2175,"responses":"{\"Q0\":\"White-crowned Sparrow\"}","bird":["Black-and-white Warbler"],"family":["Wood-Warblers"],"class":["864"],"trial_type":"image-multi-choice","trial_index":56,"time_elapsed":381833,"internal_node_id":"0.0-1.0-55.0"},{"rt":1848,"responses":"{\"Q0\":\"Song Sparrow\"}","bird":["Tennessee Warbler"],"family":["Wood-Warblers"],"class":["866"],"trial_type":"image-multi-choice","trial_index":57,"time_elapsed":384688,"internal_node_id":"0.0-1.0-56.0"},{"rt":2378,"responses":"{\"Q0\":\"Orange-crowned Warbler\"}","bird":["Townsend's Warbler"],"family":["Wood-Warblers"],"class":["881"],"trial_type":"image-multi-choice","trial_index":58,"time_elapsed":388074,"internal_node_id":"0.0-1.0-57.0"},{"rt":2076,"responses":"{\"Q0\":\"White-throated Sparrow\"}","bird":["Nashville Warbler"],"family":["Wood-Warblers"],"class":["868"],"trial_type":"image-multi-choice","trial_index":59,"time_elapsed":391156,"internal_node_id":"0.0-1.0-58.0"},{"rt":2392,"responses":"{\"Q0\":\"Lark Sparrow\"}","bird":["Lincoln's Sparrow"],"family":["New World Sparrows and Allies"],"class":["903"],"trial_type":"image-multi-choice","trial_index":60,"time_elapsed":407424,"internal_node_id":"0.0-1.0-59.0"},{"rt":2022,"responses":"{\"Q0\":\"Chipping Sparrow\"}","bird":["Song Sparrow"],"family":["New World Sparrows and Allies"],"class":["902"],"trial_type":"image-multi-choice","trial_index":61,"time_elapsed":410457,"internal_node_id":"0.0-1.0-60.0"},{"rt":2154,"responses":"{\"Q0\":\"Black-and-white Warbler\"}","bird":["Yellow Warbler"],"family":["Wood-Warblers"],"class":["875"],"trial_type":"image-multi-choice","trial_index":62,"time_elapsed":413622,"internal_node_id":"0.0-1.0-61.0"},{"rt":2474,"responses":"{\"Q0\":\"Townsend's Warbler\"}","bird":["White-throated Sparrow"],"family":["New World Sparrows and Allies"],"class":["764"],"trial_type":"image-multi-choice","trial_index":63,"time_elapsed":417104,"internal_node_id":"0.0-1.0-62.0"},{"rt":2239,"responses":"{\"Q0\":\"Orange-crowned Warbler\"}","bird":["Tennessee Warbler"],"family":["Wood-Warblers"],"class":["866"],"trial_type":"image-multi-choice","trial_index":64,"time_elapsed":420352,"internal_node_id":"0.0-1.0-63.0"},{"rt":2633,"responses":"{\"Q0\":\"Vesper Sparrow\"}","bird":["Lincoln's Sparrow"],"family":["New World Sparrows and Allies"],"class":["903"],"trial_type":"image-multi-choice","trial_index":65,"time_elapsed":423992,"internal_node_id":"0.0-1.0-64.0"},{"rt":1917,"responses":"{\"Q0\":\"Townsend's Warbler\"}","bird":["Blackburnian Warbler"],"family":["Wood-Warblers"],"class":["874"],"trial_type":"image-multi-choice","trial_index":66,"time_elapsed":426916,"internal_node_id":"0.0-1.0-65.0"},{"rt":2385,"responses":"{\"Q0\":\"Magnolia Warbler\"}","bird":["Northern Waterthrush"],"family":["Wood-Warblers"],"class":["862"],"trial_type":"image-multi-choice","trial_index":67,"time_elapsed":430308,"internal_node_id":"0.0-1.0-66.0"},{"rt":4191,"responses":"{\"Q0\":\"Lark Sparrow\"}","bird":["Yellow Warbler"],"family":["Wood-Warblers"],"class":["875"],"trial_type":"image-multi-choice","trial_index":68,"time_elapsed":435506,"internal_node_id":"0.0-1.0-67.0"},{"rt":3496,"responses":"{\"Q0\":\"Orange-crowned Warbler\"}","bird":["Lincoln's Sparrow"],"family":["New World Sparrows and Allies"],"class":["903"],"trial_type":"image-multi-choice","trial_index":69,"time_elapsed":440011,"internal_node_id":"0.0-1.0-68.0"},{"rt":1863,"responses":"{\"Q0\":\"Song Sparrow\"}","bird":["American Tree Sparrow"],"family":["New World Sparrows and Allies"],"class":["894"],"trial_type":"image-multi-choice","trial_index":70,"time_elapsed":442883,"internal_node_id":"0.0-1.0-69.0"},{"rt":2661,"responses":"{\"Q0\":\"Townsend's Warbler\"}","bird":["Orange-crowned Warbler"],"family":["Wood-Warblers"],"class":["867"],"trial_type":"image-multi-choice","trial_index":71,"time_elapsed":446551,"internal_node_id":"0.0-1.0-70.0"},{"rt":3307,"responses":"{\"Q0\":\"Orange-crowned Warbler\"}","bird":["Lincoln's Sparrow"],"family":["New World Sparrows and Allies"],"class":["903"],"trial_type":"image-multi-choice","trial_index":72,"time_elapsed":450866,"internal_node_id":"0.0-1.0-71.0"},{"rt":1989,"responses":"{\"Q0\":\"Blackburnian Warbler\"}","bird":["Magnolia Warbler"],"family":["Wood-Warblers"],"class":["758"],"trial_type":"image-multi-choice","trial_index":73,"time_elapsed":453862,"internal_node_id":"0.0-1.0-72.0"},{"rt":2847,"responses":"{\"Q0\":\"Blackburnian Warbler\"}","bird":["Lincoln's Sparrow"],"family":["New World Sparrows and Allies"],"class":["903"],"trial_type":"image-multi-choice","trial_index":74,"time_elapsed":457717,"internal_node_id":"0.0-1.0-73.0"},{"rt":2290,"responses":"{\"Q0\":\"Northern Waterthrush\"}","bird":["Yellow Warbler"],"family":["Wood-Warblers"],"class":["875"],"trial_type":"image-multi-choice","trial_index":75,"time_elapsed":461016,"internal_node_id":"0.0-1.0-74.0"},{"rt":1982,"responses":"{\"Q0\":\"Fox Sparrow\"}","bird":["White-crowned Sparrow"],"family":["New World Sparrows and Allies"],"class":["766"],"trial_type":"image-multi-choice","trial_index":76,"time_elapsed":464006,"internal_node_id":"0.0-1.0-75.0"},{"rt":1708,"responses":"{\"Q0\":\"Song Sparrow\"}","bird":["Nashville Warbler"],"family":["Wood-Warblers"],"class":["868"],"trial_type":"image-multi-choice","trial_index":77,"time_elapsed":466722,"internal_node_id":"0.0-1.0-76.0"},{"rt":1714,"responses":"{\"Q0\":\"Tennessee Warbler\"}","bird":["American Tree Sparrow"],"family":["New World Sparrows and Allies"],"class":["894"],"trial_type":"image-multi-choice","trial_index":78,"time_elapsed":469444,"internal_node_id":"0.0-1.0-77.0"},{"rt":3566,"responses":"{\"Q0\":\"White-crowned Sparrow\"}","bird":["Townsend's Warbler"],"family":["Wood-Warblers"],"class":["881"],"trial_type":"image-multi-choice","trial_index":79,"time_elapsed":474019,"internal_node_id":"0.0-1.0-78.0"},{"rt":3130,"responses":"{\"Q0\":\"Lark Sparrow\"}","bird":["Chipping Sparrow"],"family":["New World Sparrows and Allies"],"class":["769"],"trial_type":"image-multi-choice","trial_index":80,"time_elapsed":478157,"internal_node_id":"0.0-1.0-79.0"},{"rt":2239,"responses":"{\"Q0\":\"Blackburnian Warbler\"}","bird":["White-throated Sparrow"],"family":["New World Sparrows and Allies"],"class":["764"],"trial_type":"image-multi-choice","trial_index":81,"time_elapsed":481404,"internal_node_id":"0.0-1.0-80.0"},{"rt":2103,"responses":"{\"Q0\":\"Song Sparrow\"}","bird":["Ovenbird"],"family":["Wood-Warblers"],"class":["860"],"trial_type":"image-multi-choice","trial_index":82,"time_elapsed":484515,"internal_node_id":"0.0-1.0-81.0"},{"rt":1913,"responses":"{\"Q0\":\"Black-and-white Warbler\"}","bird":["White-crowned Sparrow"],"family":["New World Sparrows and Allies"],"class":["766"],"trial_type":"image-multi-choice","trial_index":83,"time_elapsed":487435,"internal_node_id":"0.0-1.0-82.0"},{"rt":2377,"responses":"{\"Q0\":\"Chipping Sparrow\"}","bird":["Magnolia Warbler"],"family":["Wood-Warblers"],"class":["758"],"trial_type":"image-multi-choice","trial_index":84,"time_elapsed":490819,"internal_node_id":"0.0-1.0-83.0"},{"rt":1590,"responses":"{\"Q0\":\"Magnolia Warbler\"}","bird":["Yellow Warbler"],"family":["Wood-Warblers"],"class":["875"],"trial_type":"image-multi-choice","trial_index":85,"time_elapsed":493417,"internal_node_id":"0.0-1.0-84.0"},{"rt":1839,"responses":"{\"Q0\":\"Lark Sparrow\"}","bird":["Lark Sparrow"],"family":["New World Sparrows and Allies"],"class":["899"],"trial_type":"image-multi-choice","trial_index":86,"time_elapsed":496264,"internal_node_id":"0.0-1.0-85.0"},{"rt":3464,"responses":"{\"Q0\":\"Townsend's Warbler\"}","bird":["Lincoln's Sparrow"],"family":["New World Sparrows and Allies"],"class":["903"],"trial_type":"image-multi-choice","trial_index":87,"time_elapsed":500735,"internal_node_id":"0.0-1.0-86.0"},{"rt":5601,"responses":"{\"Q0\":\"Fox Sparrow\"}","bird":["Black-and-white Warbler"],"family":["Wood-Warblers"],"class":["864"],"trial_type":"image-multi-choice","trial_index":88,"time_elapsed":507344,"internal_node_id":"0.0-1.0-87.0"},{"rt":2827,"responses":"{\"Q0\":\"Swamp Sparrow\"}","bird":["White-crowned Sparrow"],"family":["New World Sparrows and Allies"],"class":["766"],"trial_type":"image-multi-choice","trial_index":89,"time_elapsed":511178,"internal_node_id":"0.0-1.0-88.0"},{"rt":1751,"responses":"{\"Q0\":\"Townsend's Warbler\"}","bird":["Townsend's Warbler"],"family":["Wood-Warblers"],"class":["881"],"trial_type":"image-multi-choice","trial_index":90,"time_elapsed":513939,"internal_node_id":"0.0-1.0-89.0"},{"rt":2181,"responses":"{\"Q0\":\"Townsend's Warbler\"}","bird":["White-throated Sparrow"],"family":["New World Sparrows and Allies"],"class":["764"],"trial_type":"image-multi-choice","trial_index":91,"time_elapsed":517129,"internal_node_id":"0.0-1.0-90.0"},{"rt":1215,"responses":"{\"Q0\":\"Townsend's Warbler\"}","bird":["Magnolia Warbler"],"family":["Wood-Warblers"],"class":["758"],"trial_type":"image-multi-choice","trial_index":92,"time_elapsed":519352,"internal_node_id":"0.0-1.0-91.0"},{"rt":1651,"responses":"{\"Q0\":\"Vesper Sparrow\"}","bird":["Lincoln's Sparrow"],"family":["New World Sparrows and Allies"],"class":["903"],"trial_type":"image-multi-choice","trial_index":93,"time_elapsed":522012,"internal_node_id":"0.0-1.0-92.0"},{"rt":1538,"responses":"{\"Q0\":\"Tennessee Warbler\"}","bird":["Blackburnian Warbler"],"family":["Wood-Warblers"],"class":["874"],"trial_type":"image-multi-choice","trial_index":94,"time_elapsed":524556,"internal_node_id":"0.0-1.0-93.0"},{"rt":1147,"responses":"{\"Q0\":\"Ovenbird\"}","bird":["Vesper Sparrow"],"family":["New World Sparrows and Allies"],"class":["898"],"trial_type":"image-multi-choice","trial_index":95,"time_elapsed":526711,"internal_node_id":"0.0-1.0-94.0"},{"rt":1639,"responses":"{\"Q0\":\"Northern Waterthrush\"}","bird":["Lark Sparrow"],"family":["New World Sparrows and Allies"],"class":["899"],"trial_type":"image-multi-choice","trial_index":96,"time_elapsed":529359,"internal_node_id":"0.0-1.0-95.0"},{"rt":1833,"responses":"{\"Q0\":\"Lincoln's Sparrow\"}","bird":["Swamp Sparrow"],"family":["New World Sparrows and Allies"],"class":["904"],"trial_type":"image-multi-choice","trial_index":97,"time_elapsed":532201,"internal_node_id":"0.0-1.0-96.0"},{"rt":1777,"responses":"{\"Q0\":\"Magnolia Warbler\"}","bird":["Northern Waterthrush"],"family":["Wood-Warblers"],"class":["862"],"trial_type":"image-multi-choice","trial_index":98,"time_elapsed":534987,"internal_node_id":"0.0-1.0-97.0"},{"rt":1338,"responses":"{\"Q0\":\"Lark Sparrow\"}","bird":["Ovenbird"],"family":["Wood-Warblers"],"class":["860"],"trial_type":"image-multi-choice","trial_index":99,"time_elapsed":537333,"internal_node_id":"0.0-1.0-98.0"},{"rt":1370,"responses":"{\"Q0\":\"Chipping Sparrow\"}","bird":["White-throated Sparrow"],"family":["New World Sparrows and Allies"],"class":["764"],"trial_type":"image-multi-choice","trial_index":100,"time_elapsed":539710,"internal_node_id":"0.0-1.0-99.0"},{"rt":2083,"responses":"{\"Q0\":\"Chipping Sparrow\"}","bird":["Nashville Warbler"],"family":["Wood-Warblers"],"class":["868"],"trial_type":"image-multi-choice","trial_index":101,"time_elapsed":542801,"internal_node_id":"0.0-1.0-100.0"},{"rt":2348,"responses":"{\"Q0\":\"Blackburnian Warbler\"}","bird":["Magnolia Warbler"],"family":["Wood-Warblers"],"class":["758"],"trial_type":"image-multi-choice","trial_index":102,"time_elapsed":546156,"internal_node_id":"0.0-1.0-101.0"},{"rt":1786,"responses":"{\"Q0\":\"Northern Waterthrush\"}","bird":["Swamp Sparrow"],"family":["New World Sparrows and Allies"],"class":["904"],"trial_type":"image-multi-choice","trial_index":103,"time_elapsed":548949,"internal_node_id":"0.0-1.0-102.0"},{"rt":1688,"responses":"{\"Q0\":\"Fox Sparrow\"}","bird":["Blackburnian Warbler"],"family":["Wood-Warblers"],"class":["874"],"trial_type":"image-multi-choice","trial_index":104,"time_elapsed":551646,"internal_node_id":"0.0-1.0-103.0"},{"rt":1586,"responses":"{\"Q0\":\"Song Sparrow\"}","bird":["Northern Waterthrush"],"family":["Wood-Warblers"],"class":["862"],"trial_type":"image-multi-choice","trial_index":105,"time_elapsed":554241,"internal_node_id":"0.0-1.0-104.0"},{"rt":1969,"responses":"{\"Q0\":\"Black-and-white Warbler\"}","bird":["Swamp Sparrow"],"family":["New World Sparrows and Allies"],"class":["904"],"trial_type":"image-multi-choice","trial_index":106,"time_elapsed":557218,"internal_node_id":"0.0-1.0-105.0"},{"rt":1880,"responses":"{\"Q0\":\"Black-and-white Warbler\"}","bird":["Song Sparrow"],"family":["New World Sparrows and Allies"],"class":["902"],"trial_type":"image-multi-choice","trial_index":107,"time_elapsed":560106,"internal_node_id":"0.0-1.0-106.0"},{"rt":2725,"responses":"{\"Q0\":\"Fox Sparrow\"}","bird":["Black-and-white Warbler"],"family":["Wood-Warblers"],"class":["864"],"trial_type":"image-multi-choice","trial_index":108,"time_elapsed":563838,"internal_node_id":"0.0-1.0-107.0"},{"rt":1480,"responses":"{\"Q0\":\"Swamp Sparrow\"}","bird":["Blackburnian Warbler"],"family":["Wood-Warblers"],"class":["874"],"trial_type":"image-multi-choice","trial_index":109,"time_elapsed":566327,"internal_node_id":"0.0-1.0-108.0"},{"rt":1208,"responses":"{\"Q0\":\"Townsend's Warbler\"}","bird":["Nashville Warbler"],"family":["Wood-Warblers"],"class":["868"],"trial_type":"image-multi-choice","trial_index":110,"time_elapsed":568542,"internal_node_id":"0.0-1.0-109.0"},{"rt":1355,"responses":"{\"Q0\":\"White-throated Sparrow\"}","bird":["Chipping Sparrow"],"family":["New World Sparrows and Allies"],"class":["769"],"trial_type":"image-multi-choice","trial_index":111,"time_elapsed":570905,"internal_node_id":"0.0-1.0-110.0"},{"rt":2604,"responses":"{\"Q0\":\"Black-and-white Warbler\"}","bird":["American Tree Sparrow"],"family":["New World Sparrows and Allies"],"class":["894"],"trial_type":"image-multi-choice","trial_index":112,"time_elapsed":574517,"internal_node_id":"0.0-1.0-111.0"},{"rt":1392,"responses":"{\"Q0\":\"American Tree Sparrow\"}","bird":["Northern Waterthrush"],"family":["Wood-Warblers"],"class":["862"],"trial_type":"image-multi-choice","trial_index":113,"time_elapsed":576917,"internal_node_id":"0.0-1.0-112.0"},{"rt":2115,"responses":"{\"Q0\":\"Chipping Sparrow\"}","bird":["Yellow Warbler"],"family":["Wood-Warblers"],"class":["875"],"trial_type":"image-multi-choice","trial_index":114,"time_elapsed":580041,"internal_node_id":"0.0-1.0-113.0"},{"rt":1686,"responses":"{\"Q0\":\"Black-and-white Warbler\"}","bird":["Tennessee Warbler"],"family":["Wood-Warblers"],"class":["866"],"trial_type":"image-multi-choice","trial_index":115,"time_elapsed":582736,"internal_node_id":"0.0-1.0-114.0"},{"rt":1560,"responses":"{\"Q0\":\"Swamp Sparrow\"}","bird":["Lincoln's Sparrow"],"family":["New World Sparrows and Allies"],"class":["903"],"trial_type":"image-multi-choice","trial_index":116,"time_elapsed":585303,"internal_node_id":"0.0-1.0-115.0"},{"rt":1722,"responses":"{\"Q0\":\"Magnolia Warbler\"}","bird":["Black-and-white Warbler"],"family":["Wood-Warblers"],"class":["864"],"trial_type":"image-multi-choice","trial_index":117,"time_elapsed":588034,"internal_node_id":"0.0-1.0-116.0"},{"rt":1761,"responses":"{\"Q0\":\"Blackburnian Warbler\"}","bird":["Song Sparrow"],"family":["New World Sparrows and Allies"],"class":["902"],"trial_type":"image-multi-choice","trial_index":118,"time_elapsed":590803,"internal_node_id":"0.0-1.0-117.0"},{"rt":1459,"responses":"{\"Q0\":\"Tennessee Warbler\"}","bird":["Lincoln's Sparrow"],"family":["New World Sparrows and Allies"],"class":["903"],"trial_type":"image-multi-choice","trial_index":119,"time_elapsed":593272,"internal_node_id":"0.0-1.0-118.0"},{"rt":1946,"responses":"{\"Q0\":\"Magnolia Warbler\"}","bird":["Blackburnian Warbler"],"family":["Wood-Warblers"],"class":["874"],"trial_type":"image-multi-choice","trial_index":120,"time_elapsed":604692,"internal_node_id":"0.0-1.0-119.0"},{"rt":1714,"responses":"{\"Q0\":\"Fox Sparrow\"}","bird":["Nashville Warbler"],"family":["Wood-Warblers"],"class":["868"],"trial_type":"image-multi-choice","trial_index":121,"time_elapsed":607413,"internal_node_id":"0.0-1.0-120.0"},{"rt":1463,"responses":"{\"Q0\":\"Northern Waterthrush\"}","bird":["Vesper Sparrow"],"family":["New World Sparrows and Allies"],"class":["898"],"trial_type":"image-multi-choice","trial_index":122,"time_elapsed":609885,"internal_node_id":"0.0-1.0-121.0"},{"rt":2074,"responses":"{\"Q0\":\"Nashville Warbler\"}","bird":["Townsend's Warbler"],"family":["Wood-Warblers"],"class":["881"],"trial_type":"image-multi-choice","trial_index":123,"time_elapsed":612967,"internal_node_id":"0.0-1.0-122.0"},{"rt":1478,"responses":"{\"Q0\":\"Song Sparrow\"}","bird":["Song Sparrow"],"family":["New World Sparrows and Allies"],"class":["902"],"trial_type":"image-multi-choice","trial_index":124,"time_elapsed":615456,"internal_node_id":"0.0-1.0-123.0"},{"rt":1246,"responses":"{\"Q0\":\"Fox Sparrow\"}","bird":["White-throated Sparrow"],"family":["New World Sparrows and Allies"],"class":["764"],"trial_type":"image-multi-choice","trial_index":125,"time_elapsed":617710,"internal_node_id":"0.0-1.0-124.0"},{"rt":1384,"responses":"{\"Q0\":\"Townsend's Warbler\"}","bird":["Nashville Warbler"],"family":["Wood-Warblers"],"class":["868"],"trial_type":"image-multi-choice","trial_index":126,"time_elapsed":620104,"internal_node_id":"0.0-1.0-125.0"},{"rt":1979,"responses":"{\"Q0\":\"Lincoln's Sparrow\"}","bird":["Fox Sparrow"],"family":["New World Sparrows and Allies"],"class":["901"],"trial_type":"image-multi-choice","trial_index":127,"time_elapsed":623090,"internal_node_id":"0.0-1.0-126.0"},{"rt":1721,"responses":"{\"Q0\":\"Blackburnian Warbler\"}","bird":["Magnolia Warbler"],"family":["Wood-Warblers"],"class":["758"],"trial_type":"image-multi-choice","trial_index":128,"time_elapsed":625818,"internal_node_id":"0.0-1.0-127.0"},{"rt":2037,"responses":"{\"Q0\":\"Black-and-white Warbler\"}","bird":["Nashville Warbler"],"family":["Wood-Warblers"],"class":["868"],"trial_type":"image-multi-choice","trial_index":129,"time_elapsed":628862,"internal_node_id":"0.0-1.0-128.0"},{"rt":1565,"responses":"{\"Q0\":\"Townsend's Warbler\"}","bird":["Swamp Sparrow"],"family":["New World Sparrows and Allies"],"class":["904"],"trial_type":"image-multi-choice","trial_index":130,"time_elapsed":631434,"internal_node_id":"0.0-1.0-129.0"},{"rt":1428,"responses":"{\"Q0\":\"American Tree Sparrow\"}","bird":["White-throated Sparrow"],"family":["New World Sparrows and Allies"],"class":["764"],"trial_type":"image-multi-choice","trial_index":131,"time_elapsed":633873,"internal_node_id":"0.0-1.0-130.0"},{"rt":1769,"responses":"{\"Q0\":\"Nashville Warbler\"}","bird":["Song Sparrow"],"family":["New World Sparrows and Allies"],"class":["902"],"trial_type":"image-multi-choice","trial_index":132,"time_elapsed":636649,"internal_node_id":"0.0-1.0-131.0"},{"rt":1592,"responses":"{\"Q0\":\"Fox Sparrow\"}","bird":["Yellow Warbler"],"family":["Wood-Warblers"],"class":["875"],"trial_type":"image-multi-choice","trial_index":133,"time_elapsed":639252,"internal_node_id":"0.0-1.0-132.0"},{"rt":2510,"responses":"{\"Q0\":\"Blackburnian Warbler\"}","bird":["Townsend's Warbler"],"family":["Wood-Warblers"],"class":["881"],"trial_type":"image-multi-choice","trial_index":134,"time_elapsed":642771,"internal_node_id":"0.0-1.0-133.0"},{"rt":2967,"responses":"{\"Q0\":\"Lincoln's Sparrow\"}","bird":["Fox Sparrow"],"family":["New World Sparrows and Allies"],"class":["901"],"trial_type":"image-multi-choice","trial_index":135,"time_elapsed":646747,"internal_node_id":"0.0-1.0-134.0"},{"rt":4994,"responses":"{\"Q0\":\"Tennessee Warbler\"}","bird":["White-crowned Sparrow"],"family":["New World Sparrows and Allies"],"class":["766"],"trial_type":"image-multi-choice","trial_index":136,"time_elapsed":652750,"internal_node_id":"0.0-1.0-135.0"},{"rt":3011,"responses":"{\"Q0\":\"Northern Waterthrush\"}","bird":["Magnolia Warbler"],"family":["Wood-Warblers"],"class":["758"],"trial_type":"image-multi-choice","trial_index":137,"time_elapsed":656769,"internal_node_id":"0.0-1.0-136.0"},{"rt":2216,"responses":"{\"Q0\":\"Black-and-white Warbler\"}","bird":["Blackburnian Warbler"],"family":["Wood-Warblers"],"class":["874"],"trial_type":"image-multi-choice","trial_index":138,"time_elapsed":659994,"internal_node_id":"0.0-1.0-137.0"},{"rt":2218,"responses":"{\"Q0\":\"Vesper Sparrow\"}","bird":["Magnolia Warbler"],"family":["Wood-Warblers"],"class":["758"],"trial_type":"image-multi-choice","trial_index":139,"time_elapsed":663220,"internal_node_id":"0.0-1.0-138.0"},{"rt":1561,"responses":"{\"Q0\":\"Northern Waterthrush\"}","bird":["Chipping Sparrow"],"family":["New World Sparrows and Allies"],"class":["769"],"trial_type":"image-multi-choice","trial_index":140,"time_elapsed":665788,"internal_node_id":"0.0-1.0-139.0"},{"rt":1331,"responses":"{\"Q0\":\"Northern Waterthrush\"}","bird":["American Tree Sparrow"],"family":["New World Sparrows and Allies"],"class":["894"],"trial_type":"image-multi-choice","trial_index":141,"time_elapsed":668129,"internal_node_id":"0.0-1.0-140.0"},{"rt":2088,"responses":"{\"Q0\":\"Townsend's Warbler\"}","bird":["Orange-crowned Warbler"],"family":["Wood-Warblers"],"class":["867"],"trial_type":"image-multi-choice","trial_index":142,"time_elapsed":671224,"internal_node_id":"0.0-1.0-141.0"},{"rt":1343,"responses":"{\"Q0\":\"Swamp Sparrow\"}","bird":["Fox Sparrow"],"family":["New World Sparrows and Allies"],"class":["901"],"trial_type":"image-multi-choice","trial_index":143,"time_elapsed":673575,"internal_node_id":"0.0-1.0-142.0"},{"rt":3461,"responses":"{\"Q0\":\"Vesper Sparrow\"}","bird":["Yellow Warbler"],"family":["Wood-Warblers"],"class":["875"],"trial_type":"image-multi-choice","trial_index":144,"time_elapsed":678045,"internal_node_id":"0.0-1.0-143.0"},{"rt":1267,"responses":"{\"Q0\":\"Vesper Sparrow\"}","bird":["American Tree Sparrow"],"family":["New World Sparrows and Allies"],"class":["894"],"trial_type":"image-multi-choice","trial_index":145,"time_elapsed":680321,"internal_node_id":"0.0-1.0-144.0"},{"rt":1616,"responses":"{\"Q0\":\"Orange-crowned Warbler\"}","bird":["Swamp Sparrow"],"family":["New World Sparrows and Allies"],"class":["904"],"trial_type":"image-multi-choice","trial_index":146,"time_elapsed":682945,"internal_node_id":"0.0-1.0-145.0"},{"rt":2310,"responses":"{\"Q0\":\"Magnolia Warbler\"}","bird":["Lark Sparrow"],"family":["New World Sparrows and Allies"],"class":["899"],"trial_type":"image-multi-choice","trial_index":147,"time_elapsed":686263,"internal_node_id":"0.0-1.0-146.0"},{"rt":1390,"responses":"{\"Q0\":\"Nashville Warbler\"}","bird":["Vesper Sparrow"],"family":["New World Sparrows and Allies"],"class":["898"],"trial_type":"image-multi-choice","trial_index":148,"time_elapsed":688662,"internal_node_id":"0.0-1.0-147.0"},{"rt":1493,"responses":"{\"Q0\":\"Lincoln's Sparrow\"}","bird":["Fox Sparrow"],"family":["New World Sparrows and Allies"],"class":["901"],"trial_type":"image-multi-choice","trial_index":149,"time_elapsed":691164,"internal_node_id":"0.0-1.0-148.0"},{"rt":1959,"responses":"{\"Q0\":\"Chipping Sparrow\"}","bird":["Song Sparrow"],"family":["New World Sparrows and Allies"],"class":["902"],"trial_type":"image-multi-choice","trial_index":150,"time_elapsed":694130,"internal_node_id":"0.0-1.0-149.0"},{"rt":1085,"responses":"{\"Q0\":\"Orange-crowned Warbler\"}","bird":["Blackburnian Warbler"],"family":["Wood-Warblers"],"class":["874"],"trial_type":"image-multi-choice","trial_index":151,"time_elapsed":696222,"internal_node_id":"0.0-1.0-150.0"},{"rt":1612,"responses":"{\"Q0\":\"Song Sparrow\"}","bird":["Orange-crowned Warbler"],"family":["Wood-Warblers"],"class":["867"],"trial_type":"image-multi-choice","trial_index":152,"time_elapsed":698844,"internal_node_id":"0.0-1.0-151.0"},{"rt":1162,"responses":"{\"Q0\":\"Lark Sparrow\"}","bird":["Fox Sparrow"],"family":["New World Sparrows and Allies"],"class":["901"],"trial_type":"image-multi-choice","trial_index":153,"time_elapsed":701013,"internal_node_id":"0.0-1.0-152.0"},{"rt":3563,"responses":"{\"Q0\":\"Chipping Sparrow\"}","bird":["Orange-crowned Warbler"],"family":["Wood-Warblers"],"class":["867"],"trial_type":"image-multi-choice","trial_index":154,"time_elapsed":705584,"internal_node_id":"0.0-1.0-153.0"},{"rt":1773,"responses":"{\"Q0\":\"Lincoln's Sparrow\"}","bird":["Townsend's Warbler"],"family":["Wood-Warblers"],"class":["881"],"trial_type":"image-multi-choice","trial_index":155,"time_elapsed":708366,"internal_node_id":"0.0-1.0-154.0"},{"rt":2019,"responses":"{\"Q0\":\"Tennessee Warbler\"}","bird":["Ovenbird"],"family":["Wood-Warblers"],"class":["860"],"trial_type":"image-multi-choice","trial_index":156,"time_elapsed":711394,"internal_node_id":"0.0-1.0-155.0"},{"rt":2759,"responses":"{\"Q0\":\"Song Sparrow\"}","bird":["Nashville Warbler"],"family":["Wood-Warblers"],"class":["868"],"trial_type":"image-multi-choice","trial_index":157,"time_elapsed":715162,"internal_node_id":"0.0-1.0-156.0"},{"rt":3239,"responses":"{\"Q0\":\"American Tree Sparrow\"}","bird":["Song Sparrow"],"family":["New World Sparrows and Allies"],"class":["902"],"trial_type":"image-multi-choice","trial_index":158,"time_elapsed":719413,"internal_node_id":"0.0-1.0-157.0"},{"rt":4364,"responses":"{\"Q0\":\"Ovenbird\"}","bird":["Yellow Warbler"],"family":["Wood-Warblers"],"class":["875"],"trial_type":"image-multi-choice","trial_index":159,"time_elapsed":724785,"internal_node_id":"0.0-1.0-158.0"},{"rt":2199,"responses":"{\"Q0\":\"Lincoln's Sparrow\"}","bird":["Fox Sparrow"],"family":["New World Sparrows and Allies"],"class":["901"],"trial_type":"image-multi-choice","trial_index":160,"time_elapsed":727991,"internal_node_id":"0.0-1.0-159.0"},{"rt":1697,"responses":"{\"Q0\":\"Chipping Sparrow\"}","bird":["Black-and-white Warbler"],"family":["Wood-Warblers"],"class":["864"],"trial_type":"image-multi-choice","trial_index":161,"time_elapsed":730695,"internal_node_id":"0.0-1.0-160.0"},{"rt":6615,"responses":"{\"Q0\":\"Yellow Warbler\"}","bird":["Orange-crowned Warbler"],"family":["Wood-Warblers"],"class":["867"],"trial_type":"image-multi-choice","trial_index":162,"time_elapsed":738316,"internal_node_id":"0.0-1.0-161.0"},{"rt":2265,"responses":"{\"Q0\":\"Tennessee Warbler\"}","bird":["American Tree Sparrow"],"family":["New World Sparrows and Allies"],"class":["894"],"trial_type":"image-multi-choice","trial_index":163,"time_elapsed":741590,"internal_node_id":"0.0-1.0-162.0"},{"rt":1825,"responses":"{\"Q0\":\"Tennessee Warbler\"}","bird":["Townsend's Warbler"],"family":["Wood-Warblers"],"class":["881"],"trial_type":"image-multi-choice","trial_index":164,"time_elapsed":744423,"internal_node_id":"0.0-1.0-163.0"},{"rt":1513,"responses":"{\"Q0\":\"Ovenbird\"}","bird":["Song Sparrow"],"family":["New World Sparrows and Allies"],"class":["902"],"trial_type":"image-multi-choice","trial_index":165,"time_elapsed":746944,"internal_node_id":"0.0-1.0-164.0"},{"rt":1613,"responses":"{\"Q0\":\"Northern Waterthrush\"}","bird":["Nashville Warbler"],"family":["Wood-Warblers"],"class":["868"],"trial_type":"image-multi-choice","trial_index":166,"time_elapsed":749564,"internal_node_id":"0.0-1.0-165.0"},{"rt":1960,"responses":"{\"Q0\":\"Magnolia Warbler\"}","bird":["Tennessee Warbler"],"family":["Wood-Warblers"],"class":["866"],"trial_type":"image-multi-choice","trial_index":167,"time_elapsed":752531,"internal_node_id":"0.0-1.0-166.0"},{"rt":2171,"responses":"{\"Q0\":\"Nashville Warbler\"}","bird":["Chipping Sparrow"],"family":["New World Sparrows and Allies"],"class":["769"],"trial_type":"image-multi-choice","trial_index":168,"time_elapsed":755711,"internal_node_id":"0.0-1.0-167.0"},{"rt":1776,"responses":"{\"Q0\":\"Nashville Warbler\"}","bird":["Ovenbird"],"family":["Wood-Warblers"],"class":["860"],"trial_type":"image-multi-choice","trial_index":169,"time_elapsed":758494,"internal_node_id":"0.0-1.0-168.0"},{"rt":1592,"responses":"{\"Q0\":\"Lark Sparrow\"}","bird":["White-throated Sparrow"],"family":["New World Sparrows and Allies"],"class":["764"],"trial_type":"image-multi-choice","trial_index":170,"time_elapsed":761095,"internal_node_id":"0.0-1.0-169.0"},{"rt":1674,"responses":"{\"Q0\":\"Orange-crowned Warbler\"}","bird":["Fox Sparrow"],"family":["New World Sparrows and Allies"],"class":["901"],"trial_type":"image-multi-choice","trial_index":171,"time_elapsed":763777,"internal_node_id":"0.0-1.0-170.0"},{"rt":5505,"responses":"{\"Q0\":\"Black-and-white Warbler\"}","bird":["Blackburnian Warbler"],"family":["Wood-Warblers"],"class":["874"],"trial_type":"image-multi-choice","trial_index":172,"time_elapsed":770291,"internal_node_id":"0.0-1.0-171.0"},{"rt":2539,"responses":"{\"Q0\":\"Fox Sparrow\"}","bird":["American Tree Sparrow"],"family":["New World Sparrows and Allies"],"class":["894"],"trial_type":"image-multi-choice","trial_index":173,"time_elapsed":773839,"internal_node_id":"0.0-1.0-172.0"},{"rt":2195,"responses":"{\"Q0\":\"Lincoln's Sparrow\"}","bird":["Swamp Sparrow"],"family":["New World Sparrows and Allies"],"class":["904"],"trial_type":"image-multi-choice","trial_index":174,"time_elapsed":777043,"internal_node_id":"0.0-1.0-173.0"},{"rt":1556,"responses":"{\"Q0\":\"Lark Sparrow\"}","bird":["Townsend's Warbler"],"family":["Wood-Warblers"],"class":["881"],"trial_type":"image-multi-choice","trial_index":175,"time_elapsed":779607,"internal_node_id":"0.0-1.0-174.0"},{"rt":1755,"responses":"{\"Q0\":\"Orange-crowned Warbler\"}","bird":["Tennessee Warbler"],"family":["Wood-Warblers"],"class":["866"],"trial_type":"image-multi-choice","trial_index":176,"time_elapsed":782370,"internal_node_id":"0.0-1.0-175.0"},{"rt":4952,"responses":"{\"Q0\":\"Ovenbird\"}","bird":["Northern Waterthrush"],"family":["Wood-Warblers"],"class":["862"],"trial_type":"image-multi-choice","trial_index":177,"time_elapsed":788332,"internal_node_id":"0.0-1.0-176.0"},{"rt":2343,"responses":"{\"Q0\":\"Swamp Sparrow\"}","bird":["Swamp Sparrow"],"family":["New World Sparrows and Allies"],"class":["904"],"trial_type":"image-multi-choice","trial_index":178,"time_elapsed":791684,"internal_node_id":"0.0-1.0-177.0"},{"rt":2437,"responses":"{\"Q0\":\"White-crowned Sparrow\"}","bird":["Fox Sparrow"],"family":["New World Sparrows and Allies"],"class":["901"],"trial_type":"image-multi-choice","trial_index":179,"time_elapsed":795128,"internal_node_id":"0.0-1.0-178.0"},{"rt":2853,"responses":"{\"Q0\":\"Townsend's Warbler\"}","bird":["American Tree Sparrow"],"family":["New World Sparrows and Allies"],"class":["894"],"trial_type":"image-multi-choice","trial_index":180,"time_elapsed":802964,"internal_node_id":"0.0-1.0-179.0"},{"rt":1602,"responses":"{\"Q0\":\"Lincoln's Sparrow\"}","bird":["Fox Sparrow"],"family":["New World Sparrows and Allies"],"class":["901"],"trial_type":"image-multi-choice","trial_index":181,"time_elapsed":805573,"internal_node_id":"0.0-1.0-180.0"},{"rt":6423,"responses":"{\"Q0\":\"Song Sparrow\"}","bird":["Vesper Sparrow"],"family":["New World Sparrows and Allies"],"class":["898"],"trial_type":"image-multi-choice","trial_index":182,"time_elapsed":813004,"internal_node_id":"0.0-1.0-181.0"},{"rt":1768,"responses":"{\"Q0\":\"Ovenbird\"}","bird":["Song Sparrow"],"family":["New World Sparrows and Allies"],"class":["902"],"trial_type":"image-multi-choice","trial_index":183,"time_elapsed":815781,"internal_node_id":"0.0-1.0-182.0"},{"rt":2425,"responses":"{\"Q0\":\"Lincoln's Sparrow\"}","bird":["Blackburnian Warbler"],"family":["Wood-Warblers"],"class":["874"],"trial_type":"image-multi-choice","trial_index":184,"time_elapsed":819214,"internal_node_id":"0.0-1.0-183.0"},{"rt":1975,"responses":"{\"Q0\":\"Swamp Sparrow\"}","bird":["White-crowned Sparrow"],"family":["New World Sparrows and Allies"],"class":["766"],"trial_type":"image-multi-choice","trial_index":185,"time_elapsed":822197,"internal_node_id":"0.0-1.0-184.0"},{"rt":2182,"responses":"{\"Q0\":\"Swamp Sparrow\"}","bird":["American Tree Sparrow"],"family":["New World Sparrows and Allies"],"class":["894"],"trial_type":"image-multi-choice","trial_index":186,"time_elapsed":825386,"internal_node_id":"0.0-1.0-185.0"},{"rt":2904,"responses":"{\"Q0\":\"Black-and-white Warbler\"}","bird":["Black-and-white Warbler"],"family":["Wood-Warblers"],"class":["864"],"trial_type":"image-multi-choice","trial_index":187,"time_elapsed":829299,"internal_node_id":"0.0-1.0-186.0"},{"rt":2616,"responses":"{\"Q0\":\"Townsend's Warbler\"}","bird":["Lark Sparrow"],"family":["New World Sparrows and Allies"],"class":["899"],"trial_type":"image-multi-choice","trial_index":188,"time_elapsed":832923,"internal_node_id":"0.0-1.0-187.0"},{"rt":2275,"responses":"{\"Q0\":\"Blackburnian Warbler\"}","bird":["Nashville Warbler"],"family":["Wood-Warblers"],"class":["868"],"trial_type":"image-multi-choice","trial_index":189,"time_elapsed":836206,"internal_node_id":"0.0-1.0-188.0"},{"rt":1136,"responses":"{\"Q0\":\"Vesper Sparrow\"}","bird":["Northern Waterthrush"],"family":["Wood-Warblers"],"class":["862"],"trial_type":"image-multi-choice","trial_index":190,"time_elapsed":838348,"internal_node_id":"0.0-1.0-189.0"},{"rt":1731,"responses":"{\"Q0\":\"Orange-crowned Warbler\"}","bird":["Tennessee Warbler"],"family":["Wood-Warblers"],"class":["866"],"trial_type":"image-multi-choice","trial_index":191,"time_elapsed":841086,"internal_node_id":"0.0-1.0-190.0"},{"rt":1605,"responses":"{\"Q0\":\"Nashville Warbler\"}","bird":["Nashville Warbler"],"family":["Wood-Warblers"],"class":["868"],"trial_type":"image-multi-choice","trial_index":192,"time_elapsed":843699,"internal_node_id":"0.0-1.0-191.0"},{"rt":2456,"responses":"{\"Q0\":\"Magnolia Warbler\"}","bird":["Fox Sparrow"],"family":["New World Sparrows and Allies"],"class":["901"],"trial_type":"image-multi-choice","trial_index":193,"time_elapsed":847163,"internal_node_id":"0.0-1.0-192.0"},{"rt":2002,"responses":"{\"Q0\":\"Lark Sparrow\"}","bird":["Blackburnian Warbler"],"family":["Wood-Warblers"],"class":["874"],"trial_type":"image-multi-choice","trial_index":194,"time_elapsed":850173,"internal_node_id":"0.0-1.0-193.0"},{"rt":2202,"responses":"{\"Q0\":\"Vesper Sparrow\"}","bird":["Swamp Sparrow"],"family":["New World Sparrows and Allies"],"class":["904"],"trial_type":"image-multi-choice","trial_index":195,"time_elapsed":853381,"internal_node_id":"0.0-1.0-194.0"},{"rt":2617,"responses":"{\"Q0\":\"White-throated Sparrow\"}","bird":["Townsend's Warbler"],"family":["Wood-Warblers"],"class":["881"],"trial_type":"image-multi-choice","trial_index":196,"time_elapsed":857007,"internal_node_id":"0.0-1.0-195.0"},{"rt":2706,"responses":"{\"Q0\":\"Northern Waterthrush\"}","bird":["Tennessee Warbler"],"family":["Wood-Warblers"],"class":["866"],"trial_type":"image-multi-choice","trial_index":197,"time_elapsed":860720,"internal_node_id":"0.0-1.0-196.0"},{"rt":2609,"responses":"{\"Q0\":\"Chipping Sparrow\"}","bird":["White-crowned Sparrow"],"family":["New World Sparrows and Allies"],"class":["766"],"trial_type":"image-multi-choice","trial_index":198,"time_elapsed":864337,"internal_node_id":"0.0-1.0-197.0"},{"rt":2950,"responses":"{\"Q0\":\"Song Sparrow\"}","bird":["Ovenbird"],"family":["Wood-Warblers"],"class":["860"],"trial_type":"image-multi-choice","trial_index":199,"time_elapsed":868294,"internal_node_id":"0.0-1.0-198.0"},{"rt":4157,"responses":"{\"Q0\":\"White-throated Sparrow\"}","bird":["Vesper Sparrow"],"family":["New World Sparrows and Allies"],"class":["898"],"trial_type":"image-multi-choice","trial_index":200,"time_elapsed":873458,"internal_node_id":"0.0-1.0-199.0"},{"rt":2468,"responses":"{\"Q0\":\"Nashville Warbler\"}","bird":["Blackburnian Warbler"],"family":["Wood-Warblers"],"class":["874"],"trial_type":"image-multi-choice","trial_index":201,"time_elapsed":876934,"internal_node_id":"0.0-1.0-200.0"},{"rt":2517,"responses":"{\"Q0\":\"Chipping Sparrow\"}","bird":["Chipping Sparrow"],"family":["New World Sparrows and Allies"],"class":["769"],"trial_type":"image-multi-choice","trial_index":202,"time_elapsed":880460,"internal_node_id":"0.0-1.0-201.0"},{"rt":1915,"responses":"{\"Q0\":\"Ovenbird\"}","bird":["Vesper Sparrow"],"family":["New World Sparrows and Allies"],"class":["898"],"trial_type":"image-multi-choice","trial_index":203,"time_elapsed":883383,"internal_node_id":"0.0-1.0-202.0"},{"rt":3012,"responses":"{\"Q0\":\"Magnolia Warbler\"}","bird":["Yellow Warbler"],"family":["Wood-Warblers"],"class":["875"],"trial_type":"image-multi-choice","trial_index":204,"time_elapsed":887403,"internal_node_id":"0.0-1.0-203.0"},{"rt":2465,"responses":"{\"Q0\":\"Chipping Sparrow\"}","bird":["Orange-crowned Warbler"],"family":["Wood-Warblers"],"class":["867"],"trial_type":"image-multi-choice","trial_index":205,"time_elapsed":890875,"internal_node_id":"0.0-1.0-204.0"},{"rt":1531,"responses":"{\"Q0\":\"Lincoln's Sparrow\"}","bird":["White-throated Sparrow"],"family":["New World Sparrows and Allies"],"class":["764"],"trial_type":"image-multi-choice","trial_index":206,"time_elapsed":893414,"internal_node_id":"0.0-1.0-205.0"},{"rt":1912,"responses":"{\"Q0\":\"Song Sparrow\"}","bird":["American Tree Sparrow"],"family":["New World Sparrows and Allies"],"class":["894"],"trial_type":"image-multi-choice","trial_index":207,"time_elapsed":896334,"internal_node_id":"0.0-1.0-206.0"},{"rt":4770,"responses":"{\"Q0\":\"Tennessee Warbler\"}","bird":["Orange-crowned Warbler"],"family":["Wood-Warblers"],"class":["867"],"trial_type":"image-multi-choice","trial_index":208,"time_elapsed":902112,"internal_node_id":"0.0-1.0-207.0"},{"rt":3232,"responses":"{\"Q0\":\"White-throated Sparrow\"}","bird":["Black-and-white Warbler"],"family":["Wood-Warblers"],"class":["864"],"trial_type":"image-multi-choice","trial_index":209,"time_elapsed":906351,"internal_node_id":"0.0-1.0-208.0"},{"rt":2599,"responses":"{\"Q0\":\"Lark Sparrow\"}","bird":["Lark Sparrow"],"family":["New World Sparrows and Allies"],"class":["899"],"trial_type":"image-multi-choice","trial_index":210,"time_elapsed":909958,"internal_node_id":"0.0-1.0-209.0"},{"rt":3400,"responses":"{\"Q0\":\"Orange-crowned Warbler\"}","bird":["Chipping Sparrow"],"family":["New World Sparrows and Allies"],"class":["769"],"trial_type":"image-multi-choice","trial_index":211,"time_elapsed":914366,"internal_node_id":"0.0-1.0-210.0"},{"rt":2735,"responses":"{\"Q0\":\"Orange-crowned Warbler\"}","bird":["Orange-crowned Warbler"],"family":["Wood-Warblers"],"class":["867"],"trial_type":"image-multi-choice","trial_index":212,"time_elapsed":918111,"internal_node_id":"0.0-1.0-211.0"},{"rt":1737,"responses":"{\"Q0\":\"Lincoln's Sparrow\"}","bird":["Yellow Warbler"],"family":["Wood-Warblers"],"class":["875"],"trial_type":"image-multi-choice","trial_index":213,"time_elapsed":920855,"internal_node_id":"0.0-1.0-212.0"},{"rt":1670,"responses":"{\"Q0\":\"Chipping Sparrow\"}","bird":["American Tree Sparrow"],"family":["New World Sparrows and Allies"],"class":["894"],"trial_type":"image-multi-choice","trial_index":214,"time_elapsed":923532,"internal_node_id":"0.0-1.0-213.0"},{"rt":1536,"responses":"{\"Q0\":\"Blackburnian Warbler\"}","bird":["Vesper Sparrow"],"family":["New World Sparrows and Allies"],"class":["898"],"trial_type":"image-multi-choice","trial_index":215,"time_elapsed":926075,"internal_node_id":"0.0-1.0-214.0"},{"rt":1048,"responses":"{\"Q0\":\"Vesper Sparrow\"}","bird":["Ovenbird"],"family":["Wood-Warblers"],"class":["860"],"trial_type":"image-multi-choice","trial_index":216,"time_elapsed":928129,"internal_node_id":"0.0-1.0-215.0"},{"rt":1377,"responses":"{\"Q0\":\"Magnolia Warbler\"}","bird":["Lark Sparrow"],"family":["New World Sparrows and Allies"],"class":["899"],"trial_type":"image-multi-choice","trial_index":217,"time_elapsed":930515,"internal_node_id":"0.0-1.0-216.0"},{"rt":2985,"responses":"{\"Q0\":\"Fox Sparrow\"}","bird":["Lincoln's Sparrow"],"family":["New World Sparrows and Allies"],"class":["903"],"trial_type":"image-multi-choice","trial_index":218,"time_elapsed":934510,"internal_node_id":"0.0-1.0-217.0"},{"rt":1844,"responses":"{\"Q0\":\"Song Sparrow\"}","bird":["Chipping Sparrow"],"family":["New World Sparrows and Allies"],"class":["769"],"trial_type":"image-multi-choice","trial_index":219,"time_elapsed":937363,"internal_node_id":"0.0-1.0-218.0"},{"rt":1550,"responses":"{\"Q0\":\"Magnolia Warbler\"}","bird":["Lincoln's Sparrow"],"family":["New World Sparrows and Allies"],"class":["903"],"trial_type":"image-multi-choice","trial_index":220,"time_elapsed":939919,"internal_node_id":"0.0-1.0-219.0"},{"rt":3319,"responses":"{\"Q0\":\"Yellow Warbler\"}","bird":["Northern Waterthrush"],"family":["Wood-Warblers"],"class":["862"],"trial_type":"image-multi-choice","trial_index":221,"time_elapsed":944247,"internal_node_id":"0.0-1.0-220.0"},{"rt":1808,"responses":"{\"Q0\":\"Chipping Sparrow\"}","bird":["Chipping Sparrow"],"family":["New World Sparrows and Allies"],"class":["769"],"trial_type":"image-multi-choice","trial_index":222,"time_elapsed":947063,"internal_node_id":"0.0-1.0-221.0"},{"rt":1427,"responses":"{\"Q0\":\"Blackburnian Warbler\"}","bird":["Lincoln's Sparrow"],"family":["New World Sparrows and Allies"],"class":["903"],"trial_type":"image-multi-choice","trial_index":223,"time_elapsed":949499,"internal_node_id":"0.0-1.0-222.0"},{"rt":2039,"responses":"{\"Q0\":\"White-crowned Sparrow\"}","bird":["Blackburnian Warbler"],"family":["Wood-Warblers"],"class":["874"],"trial_type":"image-multi-choice","trial_index":224,"time_elapsed":952547,"internal_node_id":"0.0-1.0-223.0"},{"rt":1508,"responses":"{\"Q0\":\"Song Sparrow\"}","bird":["Swamp Sparrow"],"family":["New World Sparrows and Allies"],"class":["904"],"trial_type":"image-multi-choice","trial_index":225,"time_elapsed":955062,"internal_node_id":"0.0-1.0-224.0"},{"rt":1273,"responses":"{\"Q0\":\"Northern Waterthrush\"}","bird":["American Tree Sparrow"],"family":["New World Sparrows and Allies"],"class":["894"],"trial_type":"image-multi-choice","trial_index":226,"time_elapsed":957344,"internal_node_id":"0.0-1.0-225.0"},{"rt":1058,"responses":"{\"Q0\":\"White-crowned Sparrow\"}","bird":["Fox Sparrow"],"family":["New World Sparrows and Allies"],"class":["901"],"trial_type":"image-multi-choice","trial_index":227,"time_elapsed":959410,"internal_node_id":"0.0-1.0-226.0"},{"rt":1349,"responses":"{\"Q0\":\"Ovenbird\"}","bird":["Northern Waterthrush"],"family":["Wood-Warblers"],"class":["862"],"trial_type":"image-multi-choice","trial_index":228,"time_elapsed":961767,"internal_node_id":"0.0-1.0-227.0"},{"rt":1349,"responses":"{\"Q0\":\"Townsend's Warbler\"}","bird":["Nashville Warbler"],"family":["Wood-Warblers"],"class":["868"],"trial_type":"image-multi-choice","trial_index":229,"time_elapsed":964123,"internal_node_id":"0.0-1.0-228.0"},{"rt":1476,"responses":"{\"Q0\":\"Nashville Warbler\"}","bird":["Black-and-white Warbler"],"family":["Wood-Warblers"],"class":["864"],"trial_type":"image-multi-choice","trial_index":230,"time_elapsed":966608,"internal_node_id":"0.0-1.0-229.0"},{"rt":1188,"responses":"{\"Q0\":\"Lincoln's Sparrow\"}","bird":["Tennessee Warbler"],"family":["Wood-Warblers"],"class":["866"],"trial_type":"image-multi-choice","trial_index":231,"time_elapsed":968803,"internal_node_id":"0.0-1.0-230.0"},{"rt":1095,"responses":"{\"Q0\":\"Magnolia Warbler\"}","bird":["Townsend's Warbler"],"family":["Wood-Warblers"],"class":["881"],"trial_type":"image-multi-choice","trial_index":232,"time_elapsed":970905,"internal_node_id":"0.0-1.0-231.0"},{"rt":1229,"responses":"{\"Q0\":\"Orange-crowned Warbler\"}","bird":["Magnolia Warbler"],"family":["Wood-Warblers"],"class":["758"],"trial_type":"image-multi-choice","trial_index":233,"time_elapsed":973141,"internal_node_id":"0.0-1.0-232.0"},{"rt":4856,"responses":"{\"Q0\":\"Chipping Sparrow\"}","bird":["Northern Waterthrush"],"family":["Wood-Warblers"],"class":["862"],"trial_type":"image-multi-choice","trial_index":234,"time_elapsed":979006,"internal_node_id":"0.0-1.0-233.0"},{"rt":1199,"responses":"{\"Q0\":\"Townsend's Warbler\"}","bird":["Orange-crowned Warbler"],"family":["Wood-Warblers"],"class":["867"],"trial_type":"image-multi-choice","trial_index":235,"time_elapsed":981214,"internal_node_id":"0.0-1.0-234.0"},{"rt":1410,"responses":"{\"Q0\":\"Orange-crowned Warbler\"}","bird":["White-throated Sparrow"],"family":["New World Sparrows and Allies"],"class":["764"],"trial_type":"image-multi-choice","trial_index":236,"time_elapsed":983631,"internal_node_id":"0.0-1.0-235.0"},{"rt":1328,"responses":"{\"Q0\":\"Lark Sparrow\"}","bird":["Yellow Warbler"],"family":["Wood-Warblers"],"class":["875"],"trial_type":"image-multi-choice","trial_index":237,"time_elapsed":985968,"internal_node_id":"0.0-1.0-236.0"},{"rt":1510,"responses":"{\"Q0\":\"Magnolia Warbler\"}","bird":["Fox Sparrow"],"family":["New World Sparrows and Allies"],"class":["901"],"trial_type":"image-multi-choice","trial_index":238,"time_elapsed":988486,"internal_node_id":"0.0-1.0-237.0"},{"rt":1155,"responses":"{\"Q0\":\"White-throated Sparrow\"}","bird":["Swamp Sparrow"],"family":["New World Sparrows and Allies"],"class":["904"],"trial_type":"image-multi-choice","trial_index":239,"time_elapsed":990650,"internal_node_id":"0.0-1.0-238.0"},{"rt":1042,"responses":"{\"Q0\":\"White-crowned Sparrow\"}","bird":["Fox Sparrow"],"family":["New World Sparrows and Allies"],"class":["901"],"trial_type":"image-multi-choice","trial_index":240,"time_elapsed":995855,"internal_node_id":"0.0-1.0-239.0"},{"rt":1555,"responses":"{\"Q0\":\"Lincoln's Sparrow\"}","bird":["Orange-crowned Warbler"],"family":["Wood-Warblers"],"class":["867"],"trial_type":"image-multi-choice","trial_index":241,"time_elapsed":998418,"internal_node_id":"0.0-1.0-240.0"},{"rt":1979,"responses":"{\"Q0\":\"Swamp Sparrow\"}","bird":["White-crowned Sparrow"],"family":["New World Sparrows and Allies"],"class":["766"],"trial_type":"image-multi-choice","trial_index":242,"time_elapsed":1001406,"internal_node_id":"0.0-1.0-241.0"},{"rt":1595,"responses":"{\"Q0\":\"Magnolia Warbler\"}","bird":["White-throated Sparrow"],"family":["New World Sparrows and Allies"],"class":["764"],"trial_type":"image-multi-choice","trial_index":243,"time_elapsed":1004011,"internal_node_id":"0.0-1.0-242.0"},{"rt":1013,"responses":"{\"Q0\":\"Vesper Sparrow\"}","bird":["Song Sparrow"],"family":["New World Sparrows and Allies"],"class":["902"],"trial_type":"image-multi-choice","trial_index":244,"time_elapsed":1006032,"internal_node_id":"0.0-1.0-243.0"},{"rt":1691,"responses":"{\"Q0\":\"Blackburnian Warbler\"}","bird":["Lark Sparrow"],"family":["New World Sparrows and Allies"],"class":["899"],"trial_type":"image-multi-choice","trial_index":245,"time_elapsed":1008731,"internal_node_id":"0.0-1.0-244.0"},{"rt":1736,"responses":"{\"Q0\":\"Chipping Sparrow\"}","bird":["Vesper Sparrow"],"family":["New World Sparrows and Allies"],"class":["898"],"trial_type":"image-multi-choice","trial_index":246,"time_elapsed":1011475,"internal_node_id":"0.0-1.0-245.0"},{"rt":1781,"responses":"{\"Q0\":\"Lark Sparrow\"}","bird":["Lark Sparrow"],"family":["New World Sparrows and Allies"],"class":["899"],"trial_type":"image-multi-choice","trial_index":247,"time_elapsed":1014263,"internal_node_id":"0.0-1.0-246.0"},{"rt":1447,"responses":"{\"Q0\":\"Black-and-white Warbler\"}","bird":["American Tree Sparrow"],"family":["New World Sparrows and Allies"],"class":["894"],"trial_type":"image-multi-choice","trial_index":248,"time_elapsed":1016719,"internal_node_id":"0.0-1.0-247.0"},{"rt":3496,"responses":"{\"Q0\":\"Black-and-white Warbler\"}","bird":["Black-and-white Warbler"],"family":["Wood-Warblers"],"class":["864"],"trial_type":"image-multi-choice","trial_index":249,"time_elapsed":1021224,"internal_node_id":"0.0-1.0-248.0"},{"rt":2005,"responses":"{\"Q0\":\"Fox Sparrow\"}","bird":["Lark Sparrow"],"family":["New World Sparrows and Allies"],"class":["899"],"trial_type":"image-multi-choice","trial_index":250,"time_elapsed":1024237,"internal_node_id":"0.0-1.0-249.0"},{"rt":1618,"responses":"{\"Q0\":\"Chipping Sparrow\"}","bird":["Orange-crowned Warbler"],"family":["Wood-Warblers"],"class":["867"],"trial_type":"image-multi-choice","trial_index":251,"time_elapsed":1026863,"internal_node_id":"0.0-1.0-250.0"},{"rt":1483,"responses":"{\"Q0\":\"Tennessee Warbler\"}","bird":["Blackburnian Warbler"],"family":["Wood-Warblers"],"class":["874"],"trial_type":"image-multi-choice","trial_index":252,"time_elapsed":1029354,"internal_node_id":"0.0-1.0-251.0"},{"rt":1182,"responses":"{\"Q0\":\"Swamp Sparrow\"}","bird":["Vesper Sparrow"],"family":["New World Sparrows and Allies"],"class":["898"],"trial_type":"image-multi-choice","trial_index":253,"time_elapsed":1031542,"internal_node_id":"0.0-1.0-252.0"},{"rt":3393,"responses":"{\"Q0\":\"Ovenbird\"}","bird":["Townsend's Warbler"],"family":["Wood-Warblers"],"class":["881"],"trial_type":"image-multi-choice","trial_index":254,"time_elapsed":1035942,"internal_node_id":"0.0-1.0-253.0"},{"rt":1541,"responses":"{\"Q0\":\"Lark Sparrow\"}","bird":["Swamp Sparrow"],"family":["New World Sparrows and Allies"],"class":["904"],"trial_type":"image-multi-choice","trial_index":255,"time_elapsed":1038491,"internal_node_id":"0.0-1.0-254.0"},{"rt":1912,"responses":"{\"Q0\":\"Lincoln's Sparrow\"}","bird":["Song Sparrow"],"family":["New World Sparrows and Allies"],"class":["902"],"trial_type":"image-multi-choice","trial_index":256,"time_elapsed":1041411,"internal_node_id":"0.0-1.0-255.0"},{"rt":1815,"responses":"{\"Q0\":\"Blackburnian Warbler\"}","bird":["Swamp Sparrow"],"family":["New World Sparrows and Allies"],"class":["904"],"trial_type":"image-multi-choice","trial_index":257,"time_elapsed":1044235,"internal_node_id":"0.0-1.0-256.0"},{"rt":1355,"responses":"{\"Q0\":\"Swamp Sparrow\"}","bird":["Ovenbird"],"family":["Wood-Warblers"],"class":["860"],"trial_type":"image-multi-choice","trial_index":258,"time_elapsed":1046599,"internal_node_id":"0.0-1.0-257.0"},{"rt":3947,"responses":"{\"Q0\":\"White-throated Sparrow\"}","bird":["Black-and-white Warbler"],"family":["Wood-Warblers"],"class":["864"],"trial_type":"image-multi-choice","trial_index":259,"time_elapsed":1051553,"internal_node_id":"0.0-1.0-258.0"},{"rt":2747,"responses":"{\"Q0\":\"Townsend's Warbler\"}","bird":["American Tree Sparrow"],"family":["New World Sparrows and Allies"],"class":["894"],"trial_type":"image-multi-choice","trial_index":260,"time_elapsed":1055305,"internal_node_id":"0.0-1.0-259.0"},{"rt":1212,"responses":"{\"Q0\":\"Swamp Sparrow\"}","bird":["Yellow Warbler"],"family":["Wood-Warblers"],"class":["875"],"trial_type":"image-multi-choice","trial_index":261,"time_elapsed":1057526,"internal_node_id":"0.0-1.0-260.0"},{"rt":1358,"responses":"{\"Q0\":\"Nashville Warbler\"}","bird":["Vesper Sparrow"],"family":["New World Sparrows and Allies"],"class":["898"],"trial_type":"image-multi-choice","trial_index":262,"time_elapsed":1059892,"internal_node_id":"0.0-1.0-261.0"},{"rt":1699,"responses":"{\"Q0\":\"Ovenbird\"}","bird":["Chipping Sparrow"],"family":["New World Sparrows and Allies"],"class":["769"],"trial_type":"image-multi-choice","trial_index":263,"time_elapsed":1062599,"internal_node_id":"0.0-1.0-262.0"},{"rt":1454,"responses":"{\"Q0\":\"Lincoln's Sparrow\"}","bird":["Northern Waterthrush"],"family":["Wood-Warblers"],"class":["862"],"trial_type":"image-multi-choice","trial_index":264,"time_elapsed":1065060,"internal_node_id":"0.0-1.0-263.0"},{"rt":3840,"responses":"{\"Q0\":\"Blackburnian Warbler\"}","bird":["Song Sparrow"],"family":["New World Sparrows and Allies"],"class":["902"],"trial_type":"image-multi-choice","trial_index":265,"time_elapsed":1069911,"internal_node_id":"0.0-1.0-264.0"},{"rt":1663,"responses":"{\"Q0\":\"Magnolia Warbler\"}","bird":["Nashville Warbler"],"family":["Wood-Warblers"],"class":["868"],"trial_type":"image-multi-choice","trial_index":266,"time_elapsed":1072582,"internal_node_id":"0.0-1.0-265.0"},{"rt":2099,"responses":"{\"Q0\":\"Lincoln's Sparrow\"}","bird":["White-throated Sparrow"],"family":["New World Sparrows and Allies"],"class":["764"],"trial_type":"image-multi-choice","trial_index":267,"time_elapsed":1075690,"internal_node_id":"0.0-1.0-266.0"},{"rt":3075,"responses":"{\"Q0\":\"White-crowned Sparrow\"}","bird":["White-crowned Sparrow"],"family":["New World Sparrows and Allies"],"class":["766"],"trial_type":"image-multi-choice","trial_index":268,"time_elapsed":1079772,"internal_node_id":"0.0-1.0-267.0"},{"rt":1359,"responses":"{\"Q0\":\"Nashville Warbler\"}","bird":["American Tree Sparrow"],"family":["New World Sparrows and Allies"],"class":["894"],"trial_type":"image-multi-choice","trial_index":269,"time_elapsed":1082139,"internal_node_id":"0.0-1.0-268.0"},{"rt":2749,"responses":"{\"Q0\":\"Northern Waterthrush\"}","bird":["White-throated Sparrow"],"family":["New World Sparrows and Allies"],"class":["764"],"trial_type":"image-multi-choice","trial_index":270,"time_elapsed":1085896,"internal_node_id":"0.0-1.0-269.0"},{"rt":3468,"responses":"{\"Q0\":\"White-crowned Sparrow\"}","bird":["White-crowned Sparrow"],"family":["New World Sparrows and Allies"],"class":["766"],"trial_type":"image-multi-choice","trial_index":271,"time_elapsed":1090371,"internal_node_id":"0.0-1.0-270.0"},{"rt":1327,"responses":"{\"Q0\":\"Song Sparrow\"}","bird":["Yellow Warbler"],"family":["Wood-Warblers"],"class":["875"],"trial_type":"image-multi-choice","trial_index":272,"time_elapsed":1092709,"internal_node_id":"0.0-1.0-271.0"},{"rt":3445,"responses":"{\"Q0\":\"White-crowned Sparrow\"}","bird":["Chipping Sparrow"],"family":["New World Sparrows and Allies"],"class":["769"],"trial_type":"image-multi-choice","trial_index":273,"time_elapsed":1097163,"internal_node_id":"0.0-1.0-272.0"},{"rt":2256,"responses":"{\"Q0\":\"Yellow Warbler\"}","bird":["Ovenbird"],"family":["Wood-Warblers"],"class":["860"],"trial_type":"image-multi-choice","trial_index":274,"time_elapsed":1100427,"internal_node_id":"0.0-1.0-273.0"},{"rt":3159,"responses":"{\"Q0\":\"Song Sparrow\"}","bird":["Northern Waterthrush"],"family":["Wood-Warblers"],"class":["862"],"trial_type":"image-multi-choice","trial_index":275,"time_elapsed":1104593,"internal_node_id":"0.0-1.0-274.0"},{"rt":1404,"responses":"{\"Q0\":\"Magnolia Warbler\"}","bird":["Ovenbird"],"family":["Wood-Warblers"],"class":["860"],"trial_type":"image-multi-choice","trial_index":276,"time_elapsed":1107006,"internal_node_id":"0.0-1.0-275.0"},{"rt":1623,"responses":"{\"Q0\":\"Fox Sparrow\"}","bird":["Black-and-white Warbler"],"family":["Wood-Warblers"],"class":["864"],"trial_type":"image-multi-choice","trial_index":277,"time_elapsed":1109638,"internal_node_id":"0.0-1.0-276.0"},{"rt":1528,"responses":"{\"Q0\":\"Lark Sparrow\"}","bird":["Chipping Sparrow"],"family":["New World Sparrows and Allies"],"class":["769"],"trial_type":"image-multi-choice","trial_index":278,"time_elapsed":1112176,"internal_node_id":"0.0-1.0-277.0"},{"rt":1873,"responses":"{\"Q0\":\"Magnolia Warbler\"}","bird":["Fox Sparrow"],"family":["New World Sparrows and Allies"],"class":["901"],"trial_type":"image-multi-choice","trial_index":279,"time_elapsed":1115056,"internal_node_id":"0.0-1.0-278.0"},{"rt":1481,"responses":"{\"Q0\":\"Black-and-white Warbler\"}","bird":["Magnolia Warbler"],"family":["Wood-Warblers"],"class":["758"],"trial_type":"image-multi-choice","trial_index":280,"time_elapsed":1117544,"internal_node_id":"0.0-1.0-279.0"},{"rt":2364,"responses":"{\"Q0\":\"White-crowned Sparrow\"}","bird":["White-crowned Sparrow"],"family":["New World Sparrows and Allies"],"class":["766"],"trial_type":"image-multi-choice","trial_index":281,"time_elapsed":1120918,"internal_node_id":"0.0-1.0-280.0"},{"rt":1621,"responses":"{\"Q0\":\"American Tree Sparrow\"}","bird":["White-throated Sparrow"],"family":["New World Sparrows and Allies"],"class":["764"],"trial_type":"image-multi-choice","trial_index":282,"time_elapsed":1123547,"internal_node_id":"0.0-1.0-281.0"},{"rt":2102,"responses":"{\"Q0\":\"American Tree Sparrow\"}","bird":["Swamp Sparrow"],"family":["New World Sparrows and Allies"],"class":["904"],"trial_type":"image-multi-choice","trial_index":283,"time_elapsed":1126657,"internal_node_id":"0.0-1.0-282.0"},{"rt":2938,"responses":"{\"Q0\":\"Lincoln's Sparrow\"}","bird":["Magnolia Warbler"],"family":["Wood-Warblers"],"class":["758"],"trial_type":"image-multi-choice","trial_index":284,"time_elapsed":1130603,"internal_node_id":"0.0-1.0-283.0"},{"rt":1807,"responses":"{\"Q0\":\"Chipping Sparrow\"}","bird":["Orange-crowned Warbler"],"family":["Wood-Warblers"],"class":["867"],"trial_type":"image-multi-choice","trial_index":285,"time_elapsed":1133417,"internal_node_id":"0.0-1.0-284.0"},{"rt":4185,"responses":"{\"Q0\":\"White-throated Sparrow\"}","bird":["Magnolia Warbler"],"family":["Wood-Warblers"],"class":["758"],"trial_type":"image-multi-choice","trial_index":286,"time_elapsed":1138609,"internal_node_id":"0.0-1.0-285.0"},{"rt":1753,"responses":"{\"Q0\":\"Northern Waterthrush\"}","bird":["Vesper Sparrow"],"family":["New World Sparrows and Allies"],"class":["898"],"trial_type":"image-multi-choice","trial_index":287,"time_elapsed":1141369,"internal_node_id":"0.0-1.0-286.0"},{"rt":1576,"responses":"{\"Q0\":\"Chipping Sparrow\"}","bird":["Northern Waterthrush"],"family":["Wood-Warblers"],"class":["862"],"trial_type":"image-multi-choice","trial_index":288,"time_elapsed":1143953,"internal_node_id":"0.0-1.0-287.0"},{"rt":2316,"responses":"{\"Q0\":\"Black-and-white Warbler\"}","bird":["Blackburnian Warbler"],"family":["Wood-Warblers"],"class":["874"],"trial_type":"image-multi-choice","trial_index":289,"time_elapsed":1147277,"internal_node_id":"0.0-1.0-288.0"},{"rt":1750,"responses":"{\"Q0\":\"Fox Sparrow\"}","bird":["Tennessee Warbler"],"family":["Wood-Warblers"],"class":["866"],"trial_type":"image-multi-choice","trial_index":290,"time_elapsed":1150036,"internal_node_id":"0.0-1.0-289.0"},{"rt":2853,"responses":"{\"Q0\":\"Fox Sparrow\"}","bird":["Lark Sparrow"],"family":["New World Sparrows and Allies"],"class":["899"],"trial_type":"image-multi-choice","trial_index":291,"time_elapsed":1153896,"internal_node_id":"0.0-1.0-290.0"},{"rt":2724,"responses":"{\"Q0\":\"Black-and-white Warbler\"}","bird":["Black-and-white Warbler"],"family":["Wood-Warblers"],"class":["864"],"trial_type":"image-multi-choice","trial_index":292,"time_elapsed":1157629,"internal_node_id":"0.0-1.0-291.0"},{"rt":1375,"responses":"{\"Q0\":\"Swamp Sparrow\"}","bird":["Lincoln's Sparrow"],"family":["New World Sparrows and Allies"],"class":["903"],"trial_type":"image-multi-choice","trial_index":293,"time_elapsed":1160012,"internal_node_id":"0.0-1.0-292.0"},{"rt":2108,"responses":"{\"Q0\":\"Magnolia Warbler\"}","bird":["Tennessee Warbler"],"family":["Wood-Warblers"],"class":["866"],"trial_type":"image-multi-choice","trial_index":294,"time_elapsed":1163128,"internal_node_id":"0.0-1.0-293.0"},{"rt":1600,"responses":"{\"Q0\":\"Magnolia Warbler\"}","bird":["Ovenbird"],"family":["Wood-Warblers"],"class":["860"],"trial_type":"image-multi-choice","trial_index":295,"time_elapsed":1165738,"internal_node_id":"0.0-1.0-294.0"},{"rt":1442,"responses":"{\"Q0\":\"Chipping Sparrow\"}","bird":["Vesper Sparrow"],"family":["New World Sparrows and Allies"],"class":["898"],"trial_type":"image-multi-choice","trial_index":296,"time_elapsed":1168186,"internal_node_id":"0.0-1.0-295.0"},{"rt":1768,"responses":"{\"Q0\":\"Tennessee Warbler\"}","bird":["Northern Waterthrush"],"family":["Wood-Warblers"],"class":["862"],"trial_type":"image-multi-choice","trial_index":297,"time_elapsed":1170960,"internal_node_id":"0.0-1.0-296.0"},{"rt":1411,"responses":"{\"Q0\":\"Song Sparrow\"}","bird":["Chipping Sparrow"],"family":["New World Sparrows and Allies"],"class":["769"],"trial_type":"image-multi-choice","trial_index":298,"time_elapsed":1173380,"internal_node_id":"0.0-1.0-297.0"},{"rt":1331,"responses":"{\"Q0\":\"Northern Waterthrush\"}","bird":["Lark Sparrow"],"family":["New World Sparrows and Allies"],"class":["899"],"trial_type":"image-multi-choice","trial_index":299,"time_elapsed":1175719,"internal_node_id":"0.0-1.0-298.0"},{"rt":3206,"responses":"{\"Q0\":\"Magnolia Warbler\"}","bird":["Yellow Warbler"],"family":["Wood-Warblers"],"class":["875"],"trial_type":"image-multi-choice","trial_index":300,"time_elapsed":1181775,"internal_node_id":"0.0-1.0-299.0"},{"view_history":"[{\"page_index\":0,\"viewing_time\":1581}]","rt":1582,"trial_type":"instructions","trial_index":301,"time_elapsed":1184359,"internal_node_id":"0.0-2.0"}]