[{"view_history":"[{\"page_index\":0,\"viewing_time\":17485}]","rt":17486,"trial_type":"instructions","trial_index":0,"time_elapsed":17488,"internal_node_id":"0.0-0.0"},{"rt":10305,"responses":"{\"Q0\":\"Song Sparrow\"}","bird":["Townsend's Warbler"],"family":["Wood-Warblers"],"class":["881"],"trial_type":"image-multi-choice","trial_index":1,"time_elapsed":28817,"internal_node_id":"0.0-1.0-0.0"},{"rt":6495,"responses":"{\"Q0\":\"Vesper Sparrow\"}","bird":["Lark Sparrow"],"family":["New World Sparrows and Allies"],"class":["899"],"trial_type":"image-multi-choice","trial_index":2,"time_elapsed":36329,"internal_node_id":"0.0-1.0-1.0"},{"rt":4025,"responses":"{\"Q0\":\"Fox Sparrow\"}","bird":["White-crowned Sparrow"],"family":["New World Sparrows and Allies"],"class":["766"],"trial_type":"image-multi-choice","trial_index":3,"time_elapsed":41372,"internal_node_id":"0.0-1.0-2.0"},{"rt":2316,"responses":"{\"Q0\":\"Swamp Sparrow\"}","bird":["Lark Sparrow"],"family":["New World Sparrows and Allies"],"class":["899"],"trial_type":"image-multi-choice","trial_index":4,"time_elapsed":44702,"internal_node_id":"0.0-1.0-3.0"},{"rt":4072,"responses":"{\"Q0\":\"American Tree Sparrow\"}","bird":["White-throated Sparrow"],"family":["New World Sparrows and Allies"],"class":["764"],"trial_type":"image-multi-choice","trial_index":5,"time_elapsed":49792,"internal_node_id":"0.0-1.0-4.0"},{"rt":13204,"responses":"{\"Q0\":\"Northern Waterthrush\"}","bird":["White-crowned Sparrow"],"family":["New World Sparrows and Allies"],"class":["766"],"trial_type":"image-multi-choice","trial_index":6,"time_elapsed":64012,"internal_node_id":"0.0-1.0-5.0"},{"rt":3116,"responses":"{\"Q0\":\"Vesper Sparrow\"}","bird":["Tennessee Warbler"],"family":["Wood-Warblers"],"class":["866"],"trial_type":"image-multi-choice","trial_index":7,"time_elapsed":68142,"internal_node_id":"0.0-1.0-6.0"},{"rt":1907,"responses":"{\"Q0\":\"Lincoln's Sparrow\"}","bird":["White-crowned Sparrow"],"family":["New World Sparrows and Allies"],"class":["766"],"trial_type":"image-multi-choice","trial_index":8,"time_elapsed":71061,"internal_node_id":"0.0-1.0-7.0"},{"rt":2240,"responses":"{\"Q0\":\"Yellow Warbler\"}","bird":["Orange-crowned Warbler"],"family":["Wood-Warblers"],"class":["867"],"trial_type":"image-multi-choice","trial_index":9,"time_elapsed":74314,"internal_node_id":"0.0-1.0-8.0"},{"rt":1593,"responses":"{\"Q0\":\"Fox Sparrow\"}","bird":["Swamp Sparrow"],"family":["New World Sparrows and Allies"],"class":["904"],"trial_type":"image-multi-choice","trial_index":10,"time_elapsed":76918,"internal_node_id":"0.0-1.0-9.0"},{"rt":1694,"responses":"{\"Q0\":\"Lincoln's Sparrow\"}","bird":["Orange-crowned Warbler"],"family":["Wood-Warblers"],"class":["867"],"trial_type":"image-multi-choice","trial_index":11,"time_elapsed":79627,"internal_node_id":"0.0-1.0-10.0"},{"rt":3875,"responses":"{\"Q0\":\"Chipping Sparrow\"}","bird":["White-crowned Sparrow"],"family":["New World Sparrows and Allies"],"class":["766"],"trial_type":"image-multi-choice","trial_index":12,"time_elapsed":84512,"internal_node_id":"0.0-1.0-11.0"},{"rt":2517,"responses":"{\"Q0\":\"Song Sparrow\"}","bird":["Townsend's Warbler"],"family":["Wood-Warblers"],"class":["881"],"trial_type":"image-multi-choice","trial_index":13,"time_elapsed":88041,"internal_node_id":"0.0-1.0-12.0"},{"rt":2367,"responses":"{\"Q0\":\"Ovenbird\"}","bird":["Lincoln's Sparrow"],"family":["New World Sparrows and Allies"],"class":["903"],"trial_type":"image-multi-choice","trial_index":14,"time_elapsed":91422,"internal_node_id":"0.0-1.0-13.0"},{"rt":1758,"responses":"{\"Q0\":\"Vesper Sparrow\"}","bird":["Ovenbird"],"family":["Wood-Warblers"],"class":["860"],"trial_type":"image-multi-choice","trial_index":15,"time_elapsed":94193,"internal_node_id":"0.0-1.0-14.0"},{"rt":1567,"responses":"{\"Q0\":\"Lark Sparrow\"}","bird":["Tennessee Warbler"],"family":["Wood-Warblers"],"class":["866"],"trial_type":"image-multi-choice","trial_index":16,"time_elapsed":96774,"internal_node_id":"0.0-1.0-15.0"},{"rt":1542,"responses":"{\"Q0\":\"Northern Waterthrush\"}","bird":["Vesper Sparrow"],"family":["New World Sparrows and Allies"],"class":["898"],"trial_type":"image-multi-choice","trial_index":17,"time_elapsed":99327,"internal_node_id":"0.0-1.0-16.0"},{"rt":1611,"responses":"{\"Q0\":\"Yellow Warbler\"}","bird":["Tennessee Warbler"],"family":["Wood-Warblers"],"class":["866"],"trial_type":"image-multi-choice","trial_index":18,"time_elapsed":101949,"internal_node_id":"0.0-1.0-17.0"},{"rt":1860,"responses":"{\"Q0\":\"Black-and-white Warbler\"}","bird":["Vesper Sparrow"],"family":["New World Sparrows and Allies"],"class":["898"],"trial_type":"image-multi-choice","trial_index":19,"time_elapsed":104826,"internal_node_id":"0.0-1.0-18.0"},{"rt":1981,"responses":"{\"Q0\":\"Blackburnian Warbler\"}","bird":["Song Sparrow"],"family":["New World Sparrows and Allies"],"class":["902"],"trial_type":"image-multi-choice","trial_index":20,"time_elapsed":107819,"internal_node_id":"0.0-1.0-19.0"},{"rt":2244,"responses":"{\"Q0\":\"Magnolia Warbler\"}","bird":["Magnolia Warbler"],"family":["Wood-Warblers"],"class":["758"],"trial_type":"image-multi-choice","trial_index":21,"time_elapsed":111074,"internal_node_id":"0.0-1.0-20.0"},{"rt":1372,"responses":"{\"Q0\":\"Nashville Warbler\"}","bird":["Orange-crowned Warbler"],"family":["Wood-Warblers"],"class":["867"],"trial_type":"image-multi-choice","trial_index":22,"time_elapsed":113457,"internal_node_id":"0.0-1.0-21.0"},{"rt":3203,"responses":"{\"Q0\":\"Chipping Sparrow\"}","bird":["Townsend's Warbler"],"family":["Wood-Warblers"],"class":["881"],"trial_type":"image-multi-choice","trial_index":23,"time_elapsed":117673,"internal_node_id":"0.0-1.0-22.0"},{"rt":2643,"responses":"{\"Q0\":\"White-throated Sparrow\"}","bird":["Ovenbird"],"family":["Wood-Warblers"],"class":["860"],"trial_type":"image-multi-choice","trial_index":24,"time_elapsed":121329,"internal_node_id":"0.0-1.0-23.0"},{"rt":2260,"responses":"{\"Q0\":\"Black-and-white Warbler\"}","bird":["Lincoln's Sparrow"],"family":["New World Sparrows and Allies"],"class":["903"],"trial_type":"image-multi-choice","trial_index":25,"time_elapsed":124604,"internal_node_id":"0.0-1.0-24.0"},{"rt":1634,"responses":"{\"Q0\":\"Vesper Sparrow\"}","bird":["White-throated Sparrow"],"family":["New World Sparrows and Allies"],"class":["764"],"trial_type":"image-multi-choice","trial_index":26,"time_elapsed":127249,"internal_node_id":"0.0-1.0-25.0"},{"rt":1022,"responses":"{\"Q0\":\"White-throated Sparrow\"}","bird":["Ovenbird"],"family":["Wood-Warblers"],"class":["860"],"trial_type":"image-multi-choice","trial_index":27,"time_elapsed":129288,"internal_node_id":"0.0-1.0-26.0"},{"rt":2668,"responses":"{\"Q0\":\"Lark Sparrow\"}","bird":["Chipping Sparrow"],"family":["New World Sparrows and Allies"],"class":["769"],"trial_type":"image-multi-choice","trial_index":28,"time_elapsed":132966,"internal_node_id":"0.0-1.0-27.0"},{"rt":1814,"responses":"{\"Q0\":\"American Tree Sparrow\"}","bird":["Fox Sparrow"],"family":["New World Sparrows and Allies"],"class":["901"],"trial_type":"image-multi-choice","trial_index":29,"time_elapsed":135794,"internal_node_id":"0.0-1.0-28.0"},{"rt":1455,"responses":"{\"Q0\":\"Ovenbird\"}","bird":["Magnolia Warbler"],"family":["Wood-Warblers"],"class":["758"],"trial_type":"image-multi-choice","trial_index":30,"time_elapsed":138259,"internal_node_id":"0.0-1.0-29.0"},{"rt":1825,"responses":"{\"Q0\":\"Lark Sparrow\"}","bird":["Northern Waterthrush"],"family":["Wood-Warblers"],"class":["862"],"trial_type":"image-multi-choice","trial_index":31,"time_elapsed":141094,"internal_node_id":"0.0-1.0-30.0"},{"rt":27122,"responses":"{\"Q0\":\"Townsend's Warbler\"}","bird":["Tennessee Warbler"],"family":["Wood-Warblers"],"class":["866"],"trial_type":"image-multi-choice","trial_index":32,"time_elapsed":169232,"internal_node_id":"0.0-1.0-31.0"},{"rt":1865,"responses":"{\"Q0\":\"Blackburnian Warbler\"}","bird":["Magnolia Warbler"],"family":["Wood-Warblers"],"class":["758"],"trial_type":"image-multi-choice","trial_index":33,"time_elapsed":172111,"internal_node_id":"0.0-1.0-32.0"},{"rt":1165,"responses":"{\"Q0\":\"White-crowned Sparrow\"}","bird":["Song Sparrow"],"family":["New World Sparrows and Allies"],"class":["902"],"trial_type":"image-multi-choice","trial_index":34,"time_elapsed":174288,"internal_node_id":"0.0-1.0-33.0"},{"rt":3085,"responses":"{\"Q0\":\"American Tree Sparrow\"}","bird":["Lark Sparrow"],"family":["New World Sparrows and Allies"],"class":["899"],"trial_type":"image-multi-choice","trial_index":35,"time_elapsed":178385,"internal_node_id":"0.0-1.0-34.0"},{"rt":8180,"responses":"{\"Q0\":\"Swamp Sparrow\"}","bird":["Nashville Warbler"],"family":["Wood-Warblers"],"class":["868"],"trial_type":"image-multi-choice","trial_index":36,"time_elapsed":187574,"internal_node_id":"0.0-1.0-35.0"},{"rt":1792,"responses":"{\"Q0\":\"Swamp Sparrow\"}","bird":["Northern Waterthrush"],"family":["Wood-Warblers"],"class":["862"],"trial_type":"image-multi-choice","trial_index":37,"time_elapsed":190382,"internal_node_id":"0.0-1.0-36.0"},{"rt":2841,"responses":"{\"Q0\":\"Orange-crowned Warbler\"}","bird":["Chipping Sparrow"],"family":["New World Sparrows and Allies"],"class":["769"],"trial_type":"image-multi-choice","trial_index":38,"time_elapsed":194234,"internal_node_id":"0.0-1.0-37.0"},{"rt":1433,"responses":"{\"Q0\":\"Lark Sparrow\"}","bird":["Yellow Warbler"],"family":["Wood-Warblers"],"class":["875"],"trial_type":"image-multi-choice","trial_index":39,"time_elapsed":196678,"internal_node_id":"0.0-1.0-38.0"},{"rt":5133,"responses":"{\"Q0\":\"Song Sparrow\"}","bird":["Ovenbird"],"family":["Wood-Warblers"],"class":["860"],"trial_type":"image-multi-choice","trial_index":40,"time_elapsed":202824,"internal_node_id":"0.0-1.0-39.0"},{"rt":2599,"responses":"{\"Q0\":\"Lark Sparrow\"}","bird":["Black-and-white Warbler"],"family":["Wood-Warblers"],"class":["864"],"trial_type":"image-multi-choice","trial_index":41,"time_elapsed":206436,"internal_node_id":"0.0-1.0-40.0"},{"rt":1035,"responses":"{\"Q0\":\"Townsend's Warbler\"}","bird":["Tennessee Warbler"],"family":["Wood-Warblers"],"class":["866"],"trial_type":"image-multi-choice","trial_index":42,"time_elapsed":208484,"internal_node_id":"0.0-1.0-41.0"},{"rt":1826,"responses":"{\"Q0\":\"Fox Sparrow\"}","bird":["Song Sparrow"],"family":["New World Sparrows and Allies"],"class":["902"],"trial_type":"image-multi-choice","trial_index":43,"time_elapsed":211320,"internal_node_id":"0.0-1.0-42.0"},{"rt":8563,"responses":"{\"Q0\":\"Tennessee Warbler\"}","bird":["Blackburnian Warbler"],"family":["Wood-Warblers"],"class":["874"],"trial_type":"image-multi-choice","trial_index":44,"time_elapsed":220897,"internal_node_id":"0.0-1.0-43.0"},{"rt":1346,"responses":"{\"Q0\":\"Song Sparrow\"}","bird":["Black-and-white Warbler"],"family":["Wood-Warblers"],"class":["864"],"trial_type":"image-multi-choice","trial_index":45,"time_elapsed":223257,"internal_node_id":"0.0-1.0-44.0"},{"rt":1982,"responses":"{\"Q0\":\"Lincoln's Sparrow\"}","bird":["Magnolia Warbler"],"family":["Wood-Warblers"],"class":["758"],"trial_type":"image-multi-choice","trial_index":46,"time_elapsed":226251,"internal_node_id":"0.0-1.0-45.0"},{"rt":3487,"responses":"{\"Q0\":\"Swamp Sparrow\"}","bird":["Ovenbird"],"family":["Wood-Warblers"],"class":["860"],"trial_type":"image-multi-choice","trial_index":47,"time_elapsed":230752,"internal_node_id":"0.0-1.0-46.0"},{"rt":9270,"responses":"{\"Q0\":\"Magnolia Warbler\"}","bird":["Vesper Sparrow"],"family":["New World Sparrows and Allies"],"class":["898"],"trial_type":"image-multi-choice","trial_index":48,"time_elapsed":241035,"internal_node_id":"0.0-1.0-47.0"},{"rt":1109,"responses":"{\"Q0\":\"Blackburnian Warbler\"}","bird":["Lark Sparrow"],"family":["New World Sparrows and Allies"],"class":["899"],"trial_type":"image-multi-choice","trial_index":49,"time_elapsed":243157,"internal_node_id":"0.0-1.0-48.0"},{"rt":1356,"responses":"{\"Q0\":\"American Tree Sparrow\"}","bird":["Black-and-white Warbler"],"family":["Wood-Warblers"],"class":["864"],"trial_type":"image-multi-choice","trial_index":50,"time_elapsed":245525,"internal_node_id":"0.0-1.0-49.0"},{"rt":1305,"responses":"{\"Q0\":\"White-crowned Sparrow\"}","bird":["Townsend's Warbler"],"family":["Wood-Warblers"],"class":["881"],"trial_type":"image-multi-choice","trial_index":51,"time_elapsed":247843,"internal_node_id":"0.0-1.0-50.0"},{"rt":1111,"responses":"{\"Q0\":\"Song Sparrow\"}","bird":["Nashville Warbler"],"family":["Wood-Warblers"],"class":["868"],"trial_type":"image-multi-choice","trial_index":52,"time_elapsed":249962,"internal_node_id":"0.0-1.0-51.0"},{"rt":1733,"responses":"{\"Q0\":\"Orange-crowned Warbler\"}","bird":["Chipping Sparrow"],"family":["New World Sparrows and Allies"],"class":["769"],"trial_type":"image-multi-choice","trial_index":53,"time_elapsed":252708,"internal_node_id":"0.0-1.0-52.0"},{"rt":1040,"responses":"{\"Q0\":\"White-crowned Sparrow\"}","bird":["Swamp Sparrow"],"family":["New World Sparrows and Allies"],"class":["904"],"trial_type":"image-multi-choice","trial_index":54,"time_elapsed":254758,"internal_node_id":"0.0-1.0-53.0"},{"rt":1378,"responses":"{\"Q0\":\"Nashville Warbler\"}","bird":["White-crowned Sparrow"],"family":["New World Sparrows and Allies"],"class":["766"],"trial_type":"image-multi-choice","trial_index":55,"time_elapsed":257145,"internal_node_id":"0.0-1.0-54.0"},{"rt":1357,"responses":"{\"Q0\":\"Orange-crowned Warbler\"}","bird":["Black-and-white Warbler"],"family":["Wood-Warblers"],"class":["864"],"trial_type":"image-multi-choice","trial_index":56,"time_elapsed":259516,"internal_node_id":"0.0-1.0-55.0"},{"rt":1289,"responses":"{\"Q0\":\"Magnolia Warbler\"}","bird":["Tennessee Warbler"],"family":["Wood-Warblers"],"class":["866"],"trial_type":"image-multi-choice","trial_index":57,"time_elapsed":261816,"internal_node_id":"0.0-1.0-56.0"},{"rt":1619,"responses":"{\"Q0\":\"Orange-crowned Warbler\"}","bird":["Townsend's Warbler"],"family":["Wood-Warblers"],"class":["881"],"trial_type":"image-multi-choice","trial_index":58,"time_elapsed":264448,"internal_node_id":"0.0-1.0-57.0"},{"rt":1494,"responses":"{\"Q0\":\"Ovenbird\"}","bird":["Nashville Warbler"],"family":["Wood-Warblers"],"class":["868"],"trial_type":"image-multi-choice","trial_index":59,"time_elapsed":266952,"internal_node_id":"0.0-1.0-58.0"},{"rt":1227,"responses":"{\"Q0\":\"Nashville Warbler\"}","bird":["Lincoln's Sparrow"],"family":["New World Sparrows and Allies"],"class":["903"],"trial_type":"image-multi-choice","trial_index":60,"time_elapsed":278603,"internal_node_id":"0.0-1.0-59.0"},{"rt":4461,"responses":"{\"Q0\":\"Magnolia Warbler\"}","bird":["Song Sparrow"],"family":["New World Sparrows and Allies"],"class":["902"],"trial_type":"image-multi-choice","trial_index":61,"time_elapsed":284076,"internal_node_id":"0.0-1.0-60.0"},{"rt":25424,"responses":"{\"Q0\":\"Northern Waterthrush\"}","bird":["Yellow Warbler"],"family":["Wood-Warblers"],"class":["875"],"trial_type":"image-multi-choice","trial_index":62,"time_elapsed":310514,"internal_node_id":"0.0-1.0-61.0"},{"rt":3635,"responses":"{\"Q0\":\"Black-and-white Warbler\"}","bird":["White-throated Sparrow"],"family":["New World Sparrows and Allies"],"class":["764"],"trial_type":"image-multi-choice","trial_index":63,"time_elapsed":315159,"internal_node_id":"0.0-1.0-62.0"},{"rt":3162,"responses":"{\"Q0\":\"Swamp Sparrow\"}","bird":["Tennessee Warbler"],"family":["Wood-Warblers"],"class":["866"],"trial_type":"image-multi-choice","trial_index":64,"time_elapsed":319334,"internal_node_id":"0.0-1.0-63.0"},{"rt":3287,"responses":"{\"Q0\":\"Lark Sparrow\"}","bird":["Lincoln's Sparrow"],"family":["New World Sparrows and Allies"],"class":["903"],"trial_type":"image-multi-choice","trial_index":65,"time_elapsed":323632,"internal_node_id":"0.0-1.0-64.0"},{"rt":4737,"responses":"{\"Q0\":\"Black-and-white Warbler\"}","bird":["Blackburnian Warbler"],"family":["Wood-Warblers"],"class":["874"],"trial_type":"image-multi-choice","trial_index":66,"time_elapsed":329382,"internal_node_id":"0.0-1.0-65.0"},{"rt":4507,"responses":"{\"Q0\":\"Magnolia Warbler\"}","bird":["Northern Waterthrush"],"family":["Wood-Warblers"],"class":["862"],"trial_type":"image-multi-choice","trial_index":67,"time_elapsed":334901,"internal_node_id":"0.0-1.0-66.0"},{"rt":3408,"responses":"{\"Q0\":\"Northern Waterthrush\"}","bird":["Yellow Warbler"],"family":["Wood-Warblers"],"class":["875"],"trial_type":"image-multi-choice","trial_index":68,"time_elapsed":339322,"internal_node_id":"0.0-1.0-67.0"},{"rt":2244,"responses":"{\"Q0\":\"Lark Sparrow\"}","bird":["Lincoln's Sparrow"],"family":["New World Sparrows and Allies"],"class":["903"],"trial_type":"image-multi-choice","trial_index":69,"time_elapsed":342580,"internal_node_id":"0.0-1.0-68.0"},{"rt":1759,"responses":"{\"Q0\":\"Tennessee Warbler\"}","bird":["American Tree Sparrow"],"family":["New World Sparrows and Allies"],"class":["894"],"trial_type":"image-multi-choice","trial_index":70,"time_elapsed":345351,"internal_node_id":"0.0-1.0-69.0"},{"rt":1294,"responses":"{\"Q0\":\"Vesper Sparrow\"}","bird":["Orange-crowned Warbler"],"family":["Wood-Warblers"],"class":["867"],"trial_type":"image-multi-choice","trial_index":71,"time_elapsed":347658,"internal_node_id":"0.0-1.0-70.0"},{"rt":1730,"responses":"{\"Q0\":\"Tennessee Warbler\"}","bird":["Lincoln's Sparrow"],"family":["New World Sparrows and Allies"],"class":["903"],"trial_type":"image-multi-choice","trial_index":72,"time_elapsed":350399,"internal_node_id":"0.0-1.0-71.0"},{"rt":1914,"responses":"{\"Q0\":\"Lark Sparrow\"}","bird":["Magnolia Warbler"],"family":["Wood-Warblers"],"class":["758"],"trial_type":"image-multi-choice","trial_index":73,"time_elapsed":353325,"internal_node_id":"0.0-1.0-72.0"},{"rt":1653,"responses":"{\"Q0\":\"Song Sparrow\"}","bird":["Lincoln's Sparrow"],"family":["New World Sparrows and Allies"],"class":["903"],"trial_type":"image-multi-choice","trial_index":74,"time_elapsed":355990,"internal_node_id":"0.0-1.0-73.0"},{"rt":3327,"responses":"{\"Q0\":\"Northern Waterthrush\"}","bird":["Yellow Warbler"],"family":["Wood-Warblers"],"class":["875"],"trial_type":"image-multi-choice","trial_index":75,"time_elapsed":360333,"internal_node_id":"0.0-1.0-74.0"},{"rt":2610,"responses":"{\"Q0\":\"Tennessee Warbler\"}","bird":["White-crowned Sparrow"],"family":["New World Sparrows and Allies"],"class":["766"],"trial_type":"image-multi-choice","trial_index":76,"time_elapsed":363958,"internal_node_id":"0.0-1.0-75.0"},{"rt":6857,"responses":"{\"Q0\":\"Chipping Sparrow\"}","bird":["Nashville Warbler"],"family":["Wood-Warblers"],"class":["868"],"trial_type":"image-multi-choice","trial_index":77,"time_elapsed":371827,"internal_node_id":"0.0-1.0-76.0"},{"rt":6315,"responses":"{\"Q0\":\"White-throated Sparrow\"}","bird":["American Tree Sparrow"],"family":["New World Sparrows and Allies"],"class":["894"],"trial_type":"image-multi-choice","trial_index":78,"time_elapsed":379155,"internal_node_id":"0.0-1.0-77.0"},{"rt":4128,"responses":"{\"Q0\":\"Blackburnian Warbler\"}","bird":["Townsend's Warbler"],"family":["Wood-Warblers"],"class":["881"],"trial_type":"image-multi-choice","trial_index":79,"time_elapsed":384298,"internal_node_id":"0.0-1.0-78.0"},{"rt":3276,"responses":"{\"Q0\":\"White-crowned Sparrow\"}","bird":["Chipping Sparrow"],"family":["New World Sparrows and Allies"],"class":["769"],"trial_type":"image-multi-choice","trial_index":80,"time_elapsed":388587,"internal_node_id":"0.0-1.0-79.0"},{"rt":3856,"responses":"{\"Q0\":\"White-throated Sparrow\"}","bird":["White-throated Sparrow"],"family":["New World Sparrows and Allies"],"class":["764"],"trial_type":"image-multi-choice","trial_index":81,"time_elapsed":393456,"internal_node_id":"0.0-1.0-80.0"},{"rt":3224,"responses":"{\"Q0\":\"Orange-crowned Warbler\"}","bird":["Ovenbird"],"family":["Wood-Warblers"],"class":["860"],"trial_type":"image-multi-choice","trial_index":82,"time_elapsed":397695,"internal_node_id":"0.0-1.0-81.0"},{"rt":4298,"responses":"{\"Q0\":\"Fox Sparrow\"}","bird":["White-crowned Sparrow"],"family":["New World Sparrows and Allies"],"class":["766"],"trial_type":"image-multi-choice","trial_index":83,"time_elapsed":403003,"internal_node_id":"0.0-1.0-82.0"},{"rt":2312,"responses":"{\"Q0\":\"Chipping Sparrow\"}","bird":["Magnolia Warbler"],"family":["Wood-Warblers"],"class":["758"],"trial_type":"image-multi-choice","trial_index":84,"time_elapsed":406328,"internal_node_id":"0.0-1.0-83.0"},{"rt":1365,"responses":"{\"Q0\":\"Tennessee Warbler\"}","bird":["Yellow Warbler"],"family":["Wood-Warblers"],"class":["875"],"trial_type":"image-multi-choice","trial_index":85,"time_elapsed":408705,"internal_node_id":"0.0-1.0-84.0"},{"rt":1662,"responses":"{\"Q0\":\"Nashville Warbler\"}","bird":["Lark Sparrow"],"family":["New World Sparrows and Allies"],"class":["899"],"trial_type":"image-multi-choice","trial_index":86,"time_elapsed":411380,"internal_node_id":"0.0-1.0-85.0"},{"rt":1750,"responses":"{\"Q0\":\"Chipping Sparrow\"}","bird":["Lincoln's Sparrow"],"family":["New World Sparrows and Allies"],"class":["903"],"trial_type":"image-multi-choice","trial_index":87,"time_elapsed":414144,"internal_node_id":"0.0-1.0-86.0"},{"rt":1328,"responses":"{\"Q0\":\"Song Sparrow\"}","bird":["Black-and-white Warbler"],"family":["Wood-Warblers"],"class":["864"],"trial_type":"image-multi-choice","trial_index":88,"time_elapsed":416484,"internal_node_id":"0.0-1.0-87.0"},{"rt":1914,"responses":"{\"Q0\":\"Black-and-white Warbler\"}","bird":["White-crowned Sparrow"],"family":["New World Sparrows and Allies"],"class":["766"],"trial_type":"image-multi-choice","trial_index":89,"time_elapsed":419412,"internal_node_id":"0.0-1.0-88.0"},{"rt":1658,"responses":"{\"Q0\":\"American Tree Sparrow\"}","bird":["Townsend's Warbler"],"family":["Wood-Warblers"],"class":["881"],"trial_type":"image-multi-choice","trial_index":90,"time_elapsed":422079,"internal_node_id":"0.0-1.0-89.0"},{"rt":1456,"responses":"{\"Q0\":\"Chipping Sparrow\"}","bird":["White-throated Sparrow"],"family":["New World Sparrows and Allies"],"class":["764"],"trial_type":"image-multi-choice","trial_index":91,"time_elapsed":424547,"internal_node_id":"0.0-1.0-90.0"},{"rt":1654,"responses":"{\"Q0\":\"White-throated Sparrow\"}","bird":["Magnolia Warbler"],"family":["Wood-Warblers"],"class":["758"],"trial_type":"image-multi-choice","trial_index":92,"time_elapsed":427214,"internal_node_id":"0.0-1.0-91.0"},{"rt":1168,"responses":"{\"Q0\":\"Yellow Warbler\"}","bird":["Lincoln's Sparrow"],"family":["New World Sparrows and Allies"],"class":["903"],"trial_type":"image-multi-choice","trial_index":93,"time_elapsed":429395,"internal_node_id":"0.0-1.0-92.0"},{"rt":1515,"responses":"{\"Q0\":\"American Tree Sparrow\"}","bird":["Blackburnian Warbler"],"family":["Wood-Warblers"],"class":["874"],"trial_type":"image-multi-choice","trial_index":94,"time_elapsed":431921,"internal_node_id":"0.0-1.0-93.0"},{"rt":1701,"responses":"{\"Q0\":\"Lark Sparrow\"}","bird":["Vesper Sparrow"],"family":["New World Sparrows and Allies"],"class":["898"],"trial_type":"image-multi-choice","trial_index":95,"time_elapsed":434637,"internal_node_id":"0.0-1.0-94.0"},{"rt":1141,"responses":"{\"Q0\":\"White-crowned Sparrow\"}","bird":["Lark Sparrow"],"family":["New World Sparrows and Allies"],"class":["899"],"trial_type":"image-multi-choice","trial_index":96,"time_elapsed":436792,"internal_node_id":"0.0-1.0-95.0"},{"rt":1368,"responses":"{\"Q0\":\"Northern Waterthrush\"}","bird":["Swamp Sparrow"],"family":["New World Sparrows and Allies"],"class":["904"],"trial_type":"image-multi-choice","trial_index":97,"time_elapsed":439171,"internal_node_id":"0.0-1.0-96.0"},{"rt":1863,"responses":"{\"Q0\":\"Lincoln's Sparrow\"}","bird":["Northern Waterthrush"],"family":["Wood-Warblers"],"class":["862"],"trial_type":"image-multi-choice","trial_index":98,"time_elapsed":442046,"internal_node_id":"0.0-1.0-97.0"},{"rt":1565,"responses":"{\"Q0\":\"Magnolia Warbler\"}","bird":["Ovenbird"],"family":["Wood-Warblers"],"class":["860"],"trial_type":"image-multi-choice","trial_index":99,"time_elapsed":444623,"internal_node_id":"0.0-1.0-98.0"},{"rt":3037,"responses":"{\"Q0\":\"Ovenbird\"}","bird":["White-throated Sparrow"],"family":["New World Sparrows and Allies"],"class":["764"],"trial_type":"image-multi-choice","trial_index":100,"time_elapsed":448673,"internal_node_id":"0.0-1.0-99.0"},{"rt":1901,"responses":"{\"Q0\":\"Tennessee Warbler\"}","bird":["Nashville Warbler"],"family":["Wood-Warblers"],"class":["868"],"trial_type":"image-multi-choice","trial_index":101,"time_elapsed":451585,"internal_node_id":"0.0-1.0-100.0"},{"rt":2141,"responses":"{\"Q0\":\"Nashville Warbler\"}","bird":["Magnolia Warbler"],"family":["Wood-Warblers"],"class":["758"],"trial_type":"image-multi-choice","trial_index":102,"time_elapsed":454734,"internal_node_id":"0.0-1.0-101.0"},{"rt":1311,"responses":"{\"Q0\":\"Lark Sparrow\"}","bird":["Swamp Sparrow"],"family":["New World Sparrows and Allies"],"class":["904"],"trial_type":"image-multi-choice","trial_index":103,"time_elapsed":457059,"internal_node_id":"0.0-1.0-102.0"},{"rt":1558,"responses":"{\"Q0\":\"Magnolia Warbler\"}","bird":["Blackburnian Warbler"],"family":["Wood-Warblers"],"class":["874"],"trial_type":"image-multi-choice","trial_index":104,"time_elapsed":459634,"internal_node_id":"0.0-1.0-103.0"},{"rt":2253,"responses":"{\"Q0\":\"Song Sparrow\"}","bird":["Northern Waterthrush"],"family":["Wood-Warblers"],"class":["862"],"trial_type":"image-multi-choice","trial_index":105,"time_elapsed":462898,"internal_node_id":"0.0-1.0-104.0"},{"rt":2193,"responses":"{\"Q0\":\"Song Sparrow\"}","bird":["Swamp Sparrow"],"family":["New World Sparrows and Allies"],"class":["904"],"trial_type":"image-multi-choice","trial_index":106,"time_elapsed":466102,"internal_node_id":"0.0-1.0-105.0"},{"rt":1478,"responses":"{\"Q0\":\"Fox Sparrow\"}","bird":["Song Sparrow"],"family":["New World Sparrows and Allies"],"class":["902"],"trial_type":"image-multi-choice","trial_index":107,"time_elapsed":468597,"internal_node_id":"0.0-1.0-106.0"},{"rt":3695,"responses":"{\"Q0\":\"White-throated Sparrow\"}","bird":["Black-and-white Warbler"],"family":["Wood-Warblers"],"class":["864"],"trial_type":"image-multi-choice","trial_index":108,"time_elapsed":473308,"internal_node_id":"0.0-1.0-107.0"},{"rt":2350,"responses":"{\"Q0\":\"Blackburnian Warbler\"}","bird":["Blackburnian Warbler"],"family":["Wood-Warblers"],"class":["874"],"trial_type":"image-multi-choice","trial_index":109,"time_elapsed":476672,"internal_node_id":"0.0-1.0-108.0"},{"rt":1196,"responses":"{\"Q0\":\"White-crowned Sparrow\"}","bird":["Nashville Warbler"],"family":["Wood-Warblers"],"class":["868"],"trial_type":"image-multi-choice","trial_index":110,"time_elapsed":478878,"internal_node_id":"0.0-1.0-109.0"},{"rt":1477,"responses":"{\"Q0\":\"Ovenbird\"}","bird":["Chipping Sparrow"],"family":["New World Sparrows and Allies"],"class":["769"],"trial_type":"image-multi-choice","trial_index":111,"time_elapsed":481371,"internal_node_id":"0.0-1.0-110.0"},{"rt":1399,"responses":"{\"Q0\":\"Magnolia Warbler\"}","bird":["American Tree Sparrow"],"family":["New World Sparrows and Allies"],"class":["894"],"trial_type":"image-multi-choice","trial_index":112,"time_elapsed":483780,"internal_node_id":"0.0-1.0-111.0"},{"rt":3017,"responses":"{\"Q0\":\"Townsend's Warbler\"}","bird":["Northern Waterthrush"],"family":["Wood-Warblers"],"class":["862"],"trial_type":"image-multi-choice","trial_index":113,"time_elapsed":487808,"internal_node_id":"0.0-1.0-112.0"},{"rt":1947,"responses":"{\"Q0\":\"Song Sparrow\"}","bird":["Yellow Warbler"],"family":["Wood-Warblers"],"class":["875"],"trial_type":"image-multi-choice","trial_index":114,"time_elapsed":490770,"internal_node_id":"0.0-1.0-113.0"},{"rt":1985,"responses":"{\"Q0\":\"Nashville Warbler\"}","bird":["Tennessee Warbler"],"family":["Wood-Warblers"],"class":["866"],"trial_type":"image-multi-choice","trial_index":115,"time_elapsed":493765,"internal_node_id":"0.0-1.0-114.0"},{"rt":2198,"responses":"{\"Q0\":\"Lark Sparrow\"}","bird":["Lincoln's Sparrow"],"family":["New World Sparrows and Allies"],"class":["903"],"trial_type":"image-multi-choice","trial_index":116,"time_elapsed":496976,"internal_node_id":"0.0-1.0-115.0"},{"rt":1457,"responses":"{\"Q0\":\"Nashville Warbler\"}","bird":["Black-and-white Warbler"],"family":["Wood-Warblers"],"class":["864"],"trial_type":"image-multi-choice","trial_index":117,"time_elapsed":499445,"internal_node_id":"0.0-1.0-116.0"},{"rt":1564,"responses":"{\"Q0\":\"Swamp Sparrow\"}","bird":["Song Sparrow"],"family":["New World Sparrows and Allies"],"class":["902"],"trial_type":"image-multi-choice","trial_index":118,"time_elapsed":502024,"internal_node_id":"0.0-1.0-117.0"},{"rt":2284,"responses":"{\"Q0\":\"Tennessee Warbler\"}","bird":["Lincoln's Sparrow"],"family":["New World Sparrows and Allies"],"class":["903"],"trial_type":"image-multi-choice","trial_index":119,"time_elapsed":505320,"internal_node_id":"0.0-1.0-118.0"},{"rt":1961,"responses":"{\"Q0\":\"Lincoln's Sparrow\"}","bird":["Blackburnian Warbler"],"family":["Wood-Warblers"],"class":["874"],"trial_type":"image-multi-choice","trial_index":120,"time_elapsed":618429,"internal_node_id":"0.0-1.0-119.0"},{"rt":3423,"responses":"{\"Q0\":\"Fox Sparrow\"}","bird":["Nashville Warbler"],"family":["Wood-Warblers"],"class":["868"],"trial_type":"image-multi-choice","trial_index":121,"time_elapsed":622865,"internal_node_id":"0.0-1.0-120.0"},{"rt":2479,"responses":"{\"Q0\":\"Song Sparrow\"}","bird":["Vesper Sparrow"],"family":["New World Sparrows and Allies"],"class":["898"],"trial_type":"image-multi-choice","trial_index":122,"time_elapsed":626354,"internal_node_id":"0.0-1.0-121.0"},{"rt":2430,"responses":"{\"Q0\":\"Fox Sparrow\"}","bird":["Townsend's Warbler"],"family":["Wood-Warblers"],"class":["881"],"trial_type":"image-multi-choice","trial_index":123,"time_elapsed":629799,"internal_node_id":"0.0-1.0-122.0"},{"rt":2396,"responses":"{\"Q0\":\"Lincoln's Sparrow\"}","bird":["Song Sparrow"],"family":["New World Sparrows and Allies"],"class":["902"],"trial_type":"image-multi-choice","trial_index":124,"time_elapsed":633210,"internal_node_id":"0.0-1.0-123.0"},{"rt":2732,"responses":"{\"Q0\":\"Vesper Sparrow\"}","bird":["White-throated Sparrow"],"family":["New World Sparrows and Allies"],"class":["764"],"trial_type":"image-multi-choice","trial_index":125,"time_elapsed":636954,"internal_node_id":"0.0-1.0-124.0"},{"rt":3601,"responses":"{\"Q0\":\"Magnolia Warbler\"}","bird":["Nashville Warbler"],"family":["Wood-Warblers"],"class":["868"],"trial_type":"image-multi-choice","trial_index":126,"time_elapsed":641568,"internal_node_id":"0.0-1.0-125.0"},{"rt":1608,"responses":"{\"Q0\":\"Magnolia Warbler\"}","bird":["Fox Sparrow"],"family":["New World Sparrows and Allies"],"class":["901"],"trial_type":"image-multi-choice","trial_index":127,"time_elapsed":644186,"internal_node_id":"0.0-1.0-126.0"},{"rt":3584,"responses":"{\"Q0\":\"Black-and-white Warbler\"}","bird":["Magnolia Warbler"],"family":["Wood-Warblers"],"class":["758"],"trial_type":"image-multi-choice","trial_index":128,"time_elapsed":648780,"internal_node_id":"0.0-1.0-127.0"},{"rt":3370,"responses":"{\"Q0\":\"Northern Waterthrush\"}","bird":["Nashville Warbler"],"family":["Wood-Warblers"],"class":["868"],"trial_type":"image-multi-choice","trial_index":129,"time_elapsed":653161,"internal_node_id":"0.0-1.0-128.0"},{"rt":4250,"responses":"{\"Q0\":\"Lincoln's Sparrow\"}","bird":["Swamp Sparrow"],"family":["New World Sparrows and Allies"],"class":["904"],"trial_type":"image-multi-choice","trial_index":130,"time_elapsed":658424,"internal_node_id":"0.0-1.0-129.0"},{"rt":2318,"responses":"{\"Q0\":\"Lark Sparrow\"}","bird":["White-throated Sparrow"],"family":["New World Sparrows and Allies"],"class":["764"],"trial_type":"image-multi-choice","trial_index":131,"time_elapsed":661756,"internal_node_id":"0.0-1.0-130.0"},{"rt":1497,"responses":"{\"Q0\":\"White-throated Sparrow\"}","bird":["Song Sparrow"],"family":["New World Sparrows and Allies"],"class":["902"],"trial_type":"image-multi-choice","trial_index":132,"time_elapsed":664266,"internal_node_id":"0.0-1.0-131.0"},{"rt":1738,"responses":"{\"Q0\":\"Blackburnian Warbler\"}","bird":["Yellow Warbler"],"family":["Wood-Warblers"],"class":["875"],"trial_type":"image-multi-choice","trial_index":133,"time_elapsed":667016,"internal_node_id":"0.0-1.0-132.0"},{"rt":1662,"responses":"{\"Q0\":\"Fox Sparrow\"}","bird":["Townsend's Warbler"],"family":["Wood-Warblers"],"class":["881"],"trial_type":"image-multi-choice","trial_index":134,"time_elapsed":669692,"internal_node_id":"0.0-1.0-133.0"},{"rt":1984,"responses":"{\"Q0\":\"Lincoln's Sparrow\"}","bird":["Fox Sparrow"],"family":["New World Sparrows and Allies"],"class":["901"],"trial_type":"image-multi-choice","trial_index":135,"time_elapsed":672690,"internal_node_id":"0.0-1.0-134.0"},{"rt":1894,"responses":"{\"Q0\":\"Lincoln's Sparrow\"}","bird":["White-crowned Sparrow"],"family":["New World Sparrows and Allies"],"class":["766"],"trial_type":"image-multi-choice","trial_index":136,"time_elapsed":675595,"internal_node_id":"0.0-1.0-135.0"},{"rt":1032,"responses":"{\"Q0\":\"Vesper Sparrow\"}","bird":["Magnolia Warbler"],"family":["Wood-Warblers"],"class":["758"],"trial_type":"image-multi-choice","trial_index":137,"time_elapsed":677635,"internal_node_id":"0.0-1.0-136.0"},{"rt":3518,"responses":"{\"Q0\":\"Black-and-white Warbler\"}","bird":["Blackburnian Warbler"],"family":["Wood-Warblers"],"class":["874"],"trial_type":"image-multi-choice","trial_index":138,"time_elapsed":682168,"internal_node_id":"0.0-1.0-137.0"},{"rt":2999,"responses":"{\"Q0\":\"Blackburnian Warbler\"}","bird":["Magnolia Warbler"],"family":["Wood-Warblers"],"class":["758"],"trial_type":"image-multi-choice","trial_index":139,"time_elapsed":686181,"internal_node_id":"0.0-1.0-138.0"},{"rt":2132,"responses":"{\"Q0\":\"Northern Waterthrush\"}","bird":["Chipping Sparrow"],"family":["New World Sparrows and Allies"],"class":["769"],"trial_type":"image-multi-choice","trial_index":140,"time_elapsed":689325,"internal_node_id":"0.0-1.0-139.0"},{"rt":31608,"responses":"{\"Q0\":\"Tennessee Warbler\"}","bird":["American Tree Sparrow"],"family":["New World Sparrows and Allies"],"class":["894"],"trial_type":"image-multi-choice","trial_index":141,"time_elapsed":721945,"internal_node_id":"0.0-1.0-140.0"},{"rt":2702,"responses":"{\"Q0\":\"Magnolia Warbler\"}","bird":["Orange-crowned Warbler"],"family":["Wood-Warblers"],"class":["867"],"trial_type":"image-multi-choice","trial_index":142,"time_elapsed":725658,"internal_node_id":"0.0-1.0-141.0"},{"rt":4202,"responses":"{\"Q0\":\"Blackburnian Warbler\"}","bird":["Fox Sparrow"],"family":["New World Sparrows and Allies"],"class":["901"],"trial_type":"image-multi-choice","trial_index":143,"time_elapsed":730873,"internal_node_id":"0.0-1.0-142.0"},{"rt":2189,"responses":"{\"Q0\":\"White-crowned Sparrow\"}","bird":["Yellow Warbler"],"family":["Wood-Warblers"],"class":["875"],"trial_type":"image-multi-choice","trial_index":144,"time_elapsed":734075,"internal_node_id":"0.0-1.0-143.0"},{"rt":4924,"responses":"{\"Q0\":\"Swamp Sparrow\"}","bird":["American Tree Sparrow"],"family":["New World Sparrows and Allies"],"class":["894"],"trial_type":"image-multi-choice","trial_index":145,"time_elapsed":740011,"internal_node_id":"0.0-1.0-144.0"},{"rt":6404,"responses":"{\"Q0\":\"Orange-crowned Warbler\"}","bird":["Swamp Sparrow"],"family":["New World Sparrows and Allies"],"class":["904"],"trial_type":"image-multi-choice","trial_index":146,"time_elapsed":747429,"internal_node_id":"0.0-1.0-145.0"},{"rt":5139,"responses":"{\"Q0\":\"Tennessee Warbler\"}","bird":["Lark Sparrow"],"family":["New World Sparrows and Allies"],"class":["899"],"trial_type":"image-multi-choice","trial_index":147,"time_elapsed":753584,"internal_node_id":"0.0-1.0-146.0"},{"rt":3818,"responses":"{\"Q0\":\"Black-and-white Warbler\"}","bird":["Vesper Sparrow"],"family":["New World Sparrows and Allies"],"class":["898"],"trial_type":"image-multi-choice","trial_index":148,"time_elapsed":758418,"internal_node_id":"0.0-1.0-147.0"},{"rt":1835,"responses":"{\"Q0\":\"White-throated Sparrow\"}","bird":["Fox Sparrow"],"family":["New World Sparrows and Allies"],"class":["901"],"trial_type":"image-multi-choice","trial_index":149,"time_elapsed":761268,"internal_node_id":"0.0-1.0-148.0"},{"rt":3570,"responses":"{\"Q0\":\"American Tree Sparrow\"}","bird":["Song Sparrow"],"family":["New World Sparrows and Allies"],"class":["902"],"trial_type":"image-multi-choice","trial_index":150,"time_elapsed":765850,"internal_node_id":"0.0-1.0-149.0"},{"rt":2731,"responses":"{\"Q0\":\"White-crowned Sparrow\"}","bird":["Blackburnian Warbler"],"family":["Wood-Warblers"],"class":["874"],"trial_type":"image-multi-choice","trial_index":151,"time_elapsed":769595,"internal_node_id":"0.0-1.0-150.0"},{"rt":1614,"responses":"{\"Q0\":\"Orange-crowned Warbler\"}","bird":["Orange-crowned Warbler"],"family":["Wood-Warblers"],"class":["867"],"trial_type":"image-multi-choice","trial_index":152,"time_elapsed":772220,"internal_node_id":"0.0-1.0-151.0"},{"rt":1589,"responses":"{\"Q0\":\"Lark Sparrow\"}","bird":["Fox Sparrow"],"family":["New World Sparrows and Allies"],"class":["901"],"trial_type":"image-multi-choice","trial_index":153,"time_elapsed":774821,"internal_node_id":"0.0-1.0-152.0"},{"rt":1677,"responses":"{\"Q0\":\"White-crowned Sparrow\"}","bird":["Orange-crowned Warbler"],"family":["Wood-Warblers"],"class":["867"],"trial_type":"image-multi-choice","trial_index":154,"time_elapsed":777512,"internal_node_id":"0.0-1.0-153.0"},{"rt":1458,"responses":"{\"Q0\":\"Orange-crowned Warbler\"}","bird":["Townsend's Warbler"],"family":["Wood-Warblers"],"class":["881"],"trial_type":"image-multi-choice","trial_index":155,"time_elapsed":779983,"internal_node_id":"0.0-1.0-154.0"},{"rt":1652,"responses":"{\"Q0\":\"Magnolia Warbler\"}","bird":["Ovenbird"],"family":["Wood-Warblers"],"class":["860"],"trial_type":"image-multi-choice","trial_index":156,"time_elapsed":782647,"internal_node_id":"0.0-1.0-155.0"},{"rt":1606,"responses":"{\"Q0\":\"Lincoln's Sparrow\"}","bird":["Nashville Warbler"],"family":["Wood-Warblers"],"class":["868"],"trial_type":"image-multi-choice","trial_index":157,"time_elapsed":785267,"internal_node_id":"0.0-1.0-156.0"},{"rt":1762,"responses":"{\"Q0\":\"Northern Waterthrush\"}","bird":["Song Sparrow"],"family":["New World Sparrows and Allies"],"class":["902"],"trial_type":"image-multi-choice","trial_index":158,"time_elapsed":788041,"internal_node_id":"0.0-1.0-157.0"},{"rt":2304,"responses":"{\"Q0\":\"Yellow Warbler\"}","bird":["Yellow Warbler"],"family":["Wood-Warblers"],"class":["875"],"trial_type":"image-multi-choice","trial_index":159,"time_elapsed":791355,"internal_node_id":"0.0-1.0-158.0"},{"rt":3949,"responses":"{\"Q0\":\"Chipping Sparrow\"}","bird":["Fox Sparrow"],"family":["New World Sparrows and Allies"],"class":["901"],"trial_type":"image-multi-choice","trial_index":160,"time_elapsed":796318,"internal_node_id":"0.0-1.0-159.0"},{"rt":2482,"responses":"{\"Q0\":\"Northern Waterthrush\"}","bird":["Black-and-white Warbler"],"family":["Wood-Warblers"],"class":["864"],"trial_type":"image-multi-choice","trial_index":161,"time_elapsed":799812,"internal_node_id":"0.0-1.0-160.0"},{"rt":2282,"responses":"{\"Q0\":\"Fox Sparrow\"}","bird":["Orange-crowned Warbler"],"family":["Wood-Warblers"],"class":["867"],"trial_type":"image-multi-choice","trial_index":162,"time_elapsed":803108,"internal_node_id":"0.0-1.0-161.0"},{"rt":2274,"responses":"{\"Q0\":\"Magnolia Warbler\"}","bird":["American Tree Sparrow"],"family":["New World Sparrows and Allies"],"class":["894"],"trial_type":"image-multi-choice","trial_index":163,"time_elapsed":806395,"internal_node_id":"0.0-1.0-162.0"},{"rt":1800,"responses":"{\"Q0\":\"Lark Sparrow\"}","bird":["Townsend's Warbler"],"family":["Wood-Warblers"],"class":["881"],"trial_type":"image-multi-choice","trial_index":164,"time_elapsed":809208,"internal_node_id":"0.0-1.0-163.0"},{"rt":1912,"responses":"{\"Q0\":\"Townsend's Warbler\"}","bird":["Song Sparrow"],"family":["New World Sparrows and Allies"],"class":["902"],"trial_type":"image-multi-choice","trial_index":165,"time_elapsed":812131,"internal_node_id":"0.0-1.0-164.0"},{"rt":1289,"responses":"{\"Q0\":\"Townsend's Warbler\"}","bird":["Nashville Warbler"],"family":["Wood-Warblers"],"class":["868"],"trial_type":"image-multi-choice","trial_index":166,"time_elapsed":814431,"internal_node_id":"0.0-1.0-165.0"},{"rt":1420,"responses":"{\"Q0\":\"Magnolia Warbler\"}","bird":["Tennessee Warbler"],"family":["Wood-Warblers"],"class":["866"],"trial_type":"image-multi-choice","trial_index":167,"time_elapsed":816864,"internal_node_id":"0.0-1.0-166.0"},{"rt":2755,"responses":"{\"Q0\":\"Lark Sparrow\"}","bird":["Chipping Sparrow"],"family":["New World Sparrows and Allies"],"class":["769"],"trial_type":"image-multi-choice","trial_index":168,"time_elapsed":820629,"internal_node_id":"0.0-1.0-167.0"},{"rt":2834,"responses":"{\"Q0\":\"Blackburnian Warbler\"}","bird":["Ovenbird"],"family":["Wood-Warblers"],"class":["860"],"trial_type":"image-multi-choice","trial_index":169,"time_elapsed":824474,"internal_node_id":"0.0-1.0-168.0"},{"rt":2848,"responses":"{\"Q0\":\"White-throated Sparrow\"}","bird":["White-throated Sparrow"],"family":["New World Sparrows and Allies"],"class":["764"],"trial_type":"image-multi-choice","trial_index":170,"time_elapsed":828335,"internal_node_id":"0.0-1.0-169.0"},{"rt":3076,"responses":"{\"Q0\":\"Black-and-white Warbler\"}","bird":["Fox Sparrow"],"family":["New World Sparrows and Allies"],"class":["901"],"trial_type":"image-multi-choice","trial_index":171,"time_elapsed":832419,"internal_node_id":"0.0-1.0-170.0"},{"rt":2920,"responses":"{\"Q0\":\"Black-and-white Warbler\"}","bird":["Blackburnian Warbler"],"family":["Wood-Warblers"],"class":["874"],"trial_type":"image-multi-choice","trial_index":172,"time_elapsed":836352,"internal_node_id":"0.0-1.0-171.0"},{"rt":3477,"responses":"{\"Q0\":\"Northern Waterthrush\"}","bird":["American Tree Sparrow"],"family":["New World Sparrows and Allies"],"class":["894"],"trial_type":"image-multi-choice","trial_index":173,"time_elapsed":840843,"internal_node_id":"0.0-1.0-172.0"},{"rt":3127,"responses":"{\"Q0\":\"White-crowned Sparrow\"}","bird":["Swamp Sparrow"],"family":["New World Sparrows and Allies"],"class":["904"],"trial_type":"image-multi-choice","trial_index":174,"time_elapsed":844980,"internal_node_id":"0.0-1.0-173.0"},{"rt":3539,"responses":"{\"Q0\":\"Magnolia Warbler\"}","bird":["Townsend's Warbler"],"family":["Wood-Warblers"],"class":["881"],"trial_type":"image-multi-choice","trial_index":175,"time_elapsed":849533,"internal_node_id":"0.0-1.0-174.0"},{"rt":2161,"responses":"{\"Q0\":\"Lincoln's Sparrow\"}","bird":["Tennessee Warbler"],"family":["Wood-Warblers"],"class":["866"],"trial_type":"image-multi-choice","trial_index":176,"time_elapsed":852705,"internal_node_id":"0.0-1.0-175.0"},{"rt":1647,"responses":"{\"Q0\":\"Yellow Warbler\"}","bird":["Northern Waterthrush"],"family":["Wood-Warblers"],"class":["862"],"trial_type":"image-multi-choice","trial_index":177,"time_elapsed":855365,"internal_node_id":"0.0-1.0-176.0"},{"rt":3689,"responses":"{\"Q0\":\"Fox Sparrow\"}","bird":["Swamp Sparrow"],"family":["New World Sparrows and Allies"],"class":["904"],"trial_type":"image-multi-choice","trial_index":178,"time_elapsed":860066,"internal_node_id":"0.0-1.0-177.0"},{"rt":3233,"responses":"{\"Q0\":\"Northern Waterthrush\"}","bird":["Fox Sparrow"],"family":["New World Sparrows and Allies"],"class":["901"],"trial_type":"image-multi-choice","trial_index":179,"time_elapsed":864311,"internal_node_id":"0.0-1.0-178.0"},{"rt":1865,"responses":"{\"Q0\":\"White-throated Sparrow\"}","bird":["American Tree Sparrow"],"family":["New World Sparrows and Allies"],"class":["894"],"trial_type":"image-multi-choice","trial_index":180,"time_elapsed":906275,"internal_node_id":"0.0-1.0-179.0"},{"rt":5626,"responses":"{\"Q0\":\"Vesper Sparrow\"}","bird":["Fox Sparrow"],"family":["New World Sparrows and Allies"],"class":["901"],"trial_type":"image-multi-choice","trial_index":181,"time_elapsed":912912,"internal_node_id":"0.0-1.0-180.0"},{"rt":3501,"responses":"{\"Q0\":\"Magnolia Warbler\"}","bird":["Vesper Sparrow"],"family":["New World Sparrows and Allies"],"class":["898"],"trial_type":"image-multi-choice","trial_index":182,"time_elapsed":917424,"internal_node_id":"0.0-1.0-181.0"},{"rt":2621,"responses":"{\"Q0\":\"Blackburnian Warbler\"}","bird":["Song Sparrow"],"family":["New World Sparrows and Allies"],"class":["902"],"trial_type":"image-multi-choice","trial_index":183,"time_elapsed":921056,"internal_node_id":"0.0-1.0-182.0"},{"rt":2747,"responses":"{\"Q0\":\"Black-and-white Warbler\"}","bird":["Blackburnian Warbler"],"family":["Wood-Warblers"],"class":["874"],"trial_type":"image-multi-choice","trial_index":184,"time_elapsed":924815,"internal_node_id":"0.0-1.0-183.0"},{"rt":4659,"responses":"{\"Q0\":\"Townsend's Warbler\"}","bird":["White-crowned Sparrow"],"family":["New World Sparrows and Allies"],"class":["766"],"trial_type":"image-multi-choice","trial_index":185,"time_elapsed":930487,"internal_node_id":"0.0-1.0-184.0"},{"rt":3731,"responses":"{\"Q0\":\"Lincoln's Sparrow\"}","bird":["American Tree Sparrow"],"family":["New World Sparrows and Allies"],"class":["894"],"trial_type":"image-multi-choice","trial_index":186,"time_elapsed":935228,"internal_node_id":"0.0-1.0-185.0"},{"rt":2688,"responses":"{\"Q0\":\"Black-and-white Warbler\"}","bird":["Black-and-white Warbler"],"family":["Wood-Warblers"],"class":["864"],"trial_type":"image-multi-choice","trial_index":187,"time_elapsed":938927,"internal_node_id":"0.0-1.0-186.0"},{"rt":4589,"responses":"{\"Q0\":\"Ovenbird\"}","bird":["Lark Sparrow"],"family":["New World Sparrows and Allies"],"class":["899"],"trial_type":"image-multi-choice","trial_index":188,"time_elapsed":944527,"internal_node_id":"0.0-1.0-187.0"},{"rt":3793,"responses":"{\"Q0\":\"Yellow Warbler\"}","bird":["Nashville Warbler"],"family":["Wood-Warblers"],"class":["868"],"trial_type":"image-multi-choice","trial_index":189,"time_elapsed":949333,"internal_node_id":"0.0-1.0-188.0"},{"rt":3370,"responses":"{\"Q0\":\"Lincoln's Sparrow\"}","bird":["Northern Waterthrush"],"family":["Wood-Warblers"],"class":["862"],"trial_type":"image-multi-choice","trial_index":190,"time_elapsed":953714,"internal_node_id":"0.0-1.0-189.0"},{"rt":2185,"responses":"{\"Q0\":\"Song Sparrow\"}","bird":["Tennessee Warbler"],"family":["Wood-Warblers"],"class":["866"],"trial_type":"image-multi-choice","trial_index":191,"time_elapsed":956914,"internal_node_id":"0.0-1.0-190.0"},{"rt":2258,"responses":"{\"Q0\":\"Fox Sparrow\"}","bird":["Nashville Warbler"],"family":["Wood-Warblers"],"class":["868"],"trial_type":"image-multi-choice","trial_index":192,"time_elapsed":960188,"internal_node_id":"0.0-1.0-191.0"},{"rt":1784,"responses":"{\"Q0\":\"Swamp Sparrow\"}","bird":["Fox Sparrow"],"family":["New World Sparrows and Allies"],"class":["901"],"trial_type":"image-multi-choice","trial_index":193,"time_elapsed":962983,"internal_node_id":"0.0-1.0-192.0"},{"rt":1985,"responses":"{\"Q0\":\"Song Sparrow\"}","bird":["Blackburnian Warbler"],"family":["Wood-Warblers"],"class":["874"],"trial_type":"image-multi-choice","trial_index":194,"time_elapsed":965979,"internal_node_id":"0.0-1.0-193.0"},{"rt":2932,"responses":"{\"Q0\":\"Northern Waterthrush\"}","bird":["Swamp Sparrow"],"family":["New World Sparrows and Allies"],"class":["904"],"trial_type":"image-multi-choice","trial_index":195,"time_elapsed":969926,"internal_node_id":"0.0-1.0-194.0"},{"rt":1783,"responses":"{\"Q0\":\"Lincoln's Sparrow\"}","bird":["Townsend's Warbler"],"family":["Wood-Warblers"],"class":["881"],"trial_type":"image-multi-choice","trial_index":196,"time_elapsed":972724,"internal_node_id":"0.0-1.0-195.0"},{"rt":1580,"responses":"{\"Q0\":\"Magnolia Warbler\"}","bird":["Tennessee Warbler"],"family":["Wood-Warblers"],"class":["866"],"trial_type":"image-multi-choice","trial_index":197,"time_elapsed":975315,"internal_node_id":"0.0-1.0-196.0"},{"rt":1711,"responses":"{\"Q0\":\"Vesper Sparrow\"}","bird":["White-crowned Sparrow"],"family":["New World Sparrows and Allies"],"class":["766"],"trial_type":"image-multi-choice","trial_index":198,"time_elapsed":978037,"internal_node_id":"0.0-1.0-197.0"},{"rt":1500,"responses":"{\"Q0\":\"Song Sparrow\"}","bird":["Ovenbird"],"family":["Wood-Warblers"],"class":["860"],"trial_type":"image-multi-choice","trial_index":199,"time_elapsed":980549,"internal_node_id":"0.0-1.0-198.0"},{"rt":1510,"responses":"{\"Q0\":\"Orange-crowned Warbler\"}","bird":["Vesper Sparrow"],"family":["New World Sparrows and Allies"],"class":["898"],"trial_type":"image-multi-choice","trial_index":200,"time_elapsed":983071,"internal_node_id":"0.0-1.0-199.0"},{"rt":1143,"responses":"{\"Q0\":\"White-crowned Sparrow\"}","bird":["Blackburnian Warbler"],"family":["Wood-Warblers"],"class":["874"],"trial_type":"image-multi-choice","trial_index":201,"time_elapsed":985226,"internal_node_id":"0.0-1.0-200.0"},{"rt":3298,"responses":"{\"Q0\":\"Chipping Sparrow\"}","bird":["Chipping Sparrow"],"family":["New World Sparrows and Allies"],"class":["769"],"trial_type":"image-multi-choice","trial_index":202,"time_elapsed":989537,"internal_node_id":"0.0-1.0-201.0"},{"rt":1930,"responses":"{\"Q0\":\"Orange-crowned Warbler\"}","bird":["Vesper Sparrow"],"family":["New World Sparrows and Allies"],"class":["898"],"trial_type":"image-multi-choice","trial_index":203,"time_elapsed":992482,"internal_node_id":"0.0-1.0-202.0"},{"rt":1651,"responses":"{\"Q0\":\"Lincoln's Sparrow\"}","bird":["Yellow Warbler"],"family":["Wood-Warblers"],"class":["875"],"trial_type":"image-multi-choice","trial_index":204,"time_elapsed":995142,"internal_node_id":"0.0-1.0-203.0"},{"rt":847,"responses":"{\"Q0\":\"Yellow Warbler\"}","bird":["Orange-crowned Warbler"],"family":["Wood-Warblers"],"class":["867"],"trial_type":"image-multi-choice","trial_index":205,"time_elapsed":997002,"internal_node_id":"0.0-1.0-204.0"},{"rt":1942,"responses":"{\"Q0\":\"Swamp Sparrow\"}","bird":["White-throated Sparrow"],"family":["New World Sparrows and Allies"],"class":["764"],"trial_type":"image-multi-choice","trial_index":206,"time_elapsed":999956,"internal_node_id":"0.0-1.0-205.0"},{"rt":1295,"responses":"{\"Q0\":\"Vesper Sparrow\"}","bird":["American Tree Sparrow"],"family":["New World Sparrows and Allies"],"class":["894"],"trial_type":"image-multi-choice","trial_index":207,"time_elapsed":1002262,"internal_node_id":"0.0-1.0-206.0"},{"rt":1630,"responses":"{\"Q0\":\"Blackburnian Warbler\"}","bird":["Orange-crowned Warbler"],"family":["Wood-Warblers"],"class":["867"],"trial_type":"image-multi-choice","trial_index":208,"time_elapsed":1004906,"internal_node_id":"0.0-1.0-207.0"},{"rt":4034,"responses":"{\"Q0\":\"Black-and-white Warbler\"}","bird":["Black-and-white Warbler"],"family":["Wood-Warblers"],"class":["864"],"trial_type":"image-multi-choice","trial_index":209,"time_elapsed":1009953,"internal_node_id":"0.0-1.0-208.0"},{"rt":3888,"responses":"{\"Q0\":\"Ovenbird\"}","bird":["Lark Sparrow"],"family":["New World Sparrows and Allies"],"class":["899"],"trial_type":"image-multi-choice","trial_index":210,"time_elapsed":1014853,"internal_node_id":"0.0-1.0-209.0"},{"rt":2875,"responses":"{\"Q0\":\"Yellow Warbler\"}","bird":["Chipping Sparrow"],"family":["New World Sparrows and Allies"],"class":["769"],"trial_type":"image-multi-choice","trial_index":211,"time_elapsed":1018739,"internal_node_id":"0.0-1.0-210.0"},{"rt":2943,"responses":"{\"Q0\":\"Magnolia Warbler\"}","bird":["Orange-crowned Warbler"],"family":["Wood-Warblers"],"class":["867"],"trial_type":"image-multi-choice","trial_index":212,"time_elapsed":1022695,"internal_node_id":"0.0-1.0-211.0"},{"rt":2650,"responses":"{\"Q0\":\"Chipping Sparrow\"}","bird":["Yellow Warbler"],"family":["Wood-Warblers"],"class":["875"],"trial_type":"image-multi-choice","trial_index":213,"time_elapsed":1026361,"internal_node_id":"0.0-1.0-212.0"},{"rt":2340,"responses":"{\"Q0\":\"Lark Sparrow\"}","bird":["American Tree Sparrow"],"family":["New World Sparrows and Allies"],"class":["894"],"trial_type":"image-multi-choice","trial_index":214,"time_elapsed":1029718,"internal_node_id":"0.0-1.0-213.0"},{"rt":2558,"responses":"{\"Q0\":\"American Tree Sparrow\"}","bird":["Vesper Sparrow"],"family":["New World Sparrows and Allies"],"class":["898"],"trial_type":"image-multi-choice","trial_index":215,"time_elapsed":1033287,"internal_node_id":"0.0-1.0-214.0"},{"rt":4723,"responses":"{\"Q0\":\"Nashville Warbler\"}","bird":["Ovenbird"],"family":["Wood-Warblers"],"class":["860"],"trial_type":"image-multi-choice","trial_index":216,"time_elapsed":1039021,"internal_node_id":"0.0-1.0-215.0"},{"rt":1960,"responses":"{\"Q0\":\"Vesper Sparrow\"}","bird":["Lark Sparrow"],"family":["New World Sparrows and Allies"],"class":["899"],"trial_type":"image-multi-choice","trial_index":217,"time_elapsed":1041995,"internal_node_id":"0.0-1.0-216.0"},{"rt":2867,"responses":"{\"Q0\":\"Townsend's Warbler\"}","bird":["Lincoln's Sparrow"],"family":["New World Sparrows and Allies"],"class":["903"],"trial_type":"image-multi-choice","trial_index":218,"time_elapsed":1045873,"internal_node_id":"0.0-1.0-217.0"},{"rt":3086,"responses":"{\"Q0\":\"Vesper Sparrow\"}","bird":["Chipping Sparrow"],"family":["New World Sparrows and Allies"],"class":["769"],"trial_type":"image-multi-choice","trial_index":219,"time_elapsed":1049970,"internal_node_id":"0.0-1.0-218.0"},{"rt":2049,"responses":"{\"Q0\":\"Lark Sparrow\"}","bird":["Lincoln's Sparrow"],"family":["New World Sparrows and Allies"],"class":["903"],"trial_type":"image-multi-choice","trial_index":220,"time_elapsed":1053029,"internal_node_id":"0.0-1.0-219.0"},{"rt":1959,"responses":"{\"Q0\":\"Magnolia Warbler\"}","bird":["Northern Waterthrush"],"family":["Wood-Warblers"],"class":["862"],"trial_type":"image-multi-choice","trial_index":221,"time_elapsed":1056001,"internal_node_id":"0.0-1.0-220.0"},{"rt":1400,"responses":"{\"Q0\":\"Vesper Sparrow\"}","bird":["Chipping Sparrow"],"family":["New World Sparrows and Allies"],"class":["769"],"trial_type":"image-multi-choice","trial_index":222,"time_elapsed":1058414,"internal_node_id":"0.0-1.0-221.0"},{"rt":5457,"responses":"{\"Q0\":\"Lark Sparrow\"}","bird":["Lincoln's Sparrow"],"family":["New World Sparrows and Allies"],"class":["903"],"trial_type":"image-multi-choice","trial_index":223,"time_elapsed":1064883,"internal_node_id":"0.0-1.0-222.0"},{"rt":2167,"responses":"{\"Q0\":\"Lark Sparrow\"}","bird":["Blackburnian Warbler"],"family":["Wood-Warblers"],"class":["874"],"trial_type":"image-multi-choice","trial_index":224,"time_elapsed":1068061,"internal_node_id":"0.0-1.0-223.0"},{"rt":1146,"responses":"{\"Q0\":\"Townsend's Warbler\"}","bird":["Swamp Sparrow"],"family":["New World Sparrows and Allies"],"class":["904"],"trial_type":"image-multi-choice","trial_index":225,"time_elapsed":1070221,"internal_node_id":"0.0-1.0-224.0"},{"rt":1043,"responses":"{\"Q0\":\"Tennessee Warbler\"}","bird":["American Tree Sparrow"],"family":["New World Sparrows and Allies"],"class":["894"],"trial_type":"image-multi-choice","trial_index":226,"time_elapsed":1072275,"internal_node_id":"0.0-1.0-225.0"},{"rt":1175,"responses":"{\"Q0\":\"Nashville Warbler\"}","bird":["Fox Sparrow"],"family":["New World Sparrows and Allies"],"class":["901"],"trial_type":"image-multi-choice","trial_index":227,"time_elapsed":1074464,"internal_node_id":"0.0-1.0-226.0"},{"rt":1645,"responses":"{\"Q0\":\"Song Sparrow\"}","bird":["Northern Waterthrush"],"family":["Wood-Warblers"],"class":["862"],"trial_type":"image-multi-choice","trial_index":228,"time_elapsed":1077121,"internal_node_id":"0.0-1.0-227.0"},{"rt":1544,"responses":"{\"Q0\":\"Chipping Sparrow\"}","bird":["Nashville Warbler"],"family":["Wood-Warblers"],"class":["868"],"trial_type":"image-multi-choice","trial_index":229,"time_elapsed":1079680,"internal_node_id":"0.0-1.0-228.0"},{"rt":1828,"responses":"{\"Q0\":\"Swamp Sparrow\"}","bird":["Black-and-white Warbler"],"family":["Wood-Warblers"],"class":["864"],"trial_type":"image-multi-choice","trial_index":230,"time_elapsed":1082521,"internal_node_id":"0.0-1.0-229.0"},{"rt":1326,"responses":"{\"Q0\":\"White-crowned Sparrow\"}","bird":["Tennessee Warbler"],"family":["Wood-Warblers"],"class":["866"],"trial_type":"image-multi-choice","trial_index":231,"time_elapsed":1084857,"internal_node_id":"0.0-1.0-230.0"},{"rt":1300,"responses":"{\"Q0\":\"Swamp Sparrow\"}","bird":["Townsend's Warbler"],"family":["Wood-Warblers"],"class":["881"],"trial_type":"image-multi-choice","trial_index":232,"time_elapsed":1087169,"internal_node_id":"0.0-1.0-231.0"},{"rt":906,"responses":"{\"Q0\":\"Northern Waterthrush\"}","bird":["Magnolia Warbler"],"family":["Wood-Warblers"],"class":["758"],"trial_type":"image-multi-choice","trial_index":233,"time_elapsed":1089089,"internal_node_id":"0.0-1.0-232.0"},{"rt":1669,"responses":"{\"Q0\":\"Lincoln's Sparrow\"}","bird":["Northern Waterthrush"],"family":["Wood-Warblers"],"class":["862"],"trial_type":"image-multi-choice","trial_index":234,"time_elapsed":1091769,"internal_node_id":"0.0-1.0-233.0"},{"rt":1853,"responses":"{\"Q0\":\"Chipping Sparrow\"}","bird":["Orange-crowned Warbler"],"family":["Wood-Warblers"],"class":["867"],"trial_type":"image-multi-choice","trial_index":235,"time_elapsed":1094632,"internal_node_id":"0.0-1.0-234.0"},{"rt":1587,"responses":"{\"Q0\":\"Yellow Warbler\"}","bird":["White-throated Sparrow"],"family":["New World Sparrows and Allies"],"class":["764"],"trial_type":"image-multi-choice","trial_index":236,"time_elapsed":1097232,"internal_node_id":"0.0-1.0-235.0"},{"rt":1037,"responses":"{\"Q0\":\"Vesper Sparrow\"}","bird":["Yellow Warbler"],"family":["Wood-Warblers"],"class":["875"],"trial_type":"image-multi-choice","trial_index":237,"time_elapsed":1099280,"internal_node_id":"0.0-1.0-236.0"},{"rt":2172,"responses":"{\"Q0\":\"Fox Sparrow\"}","bird":["Fox Sparrow"],"family":["New World Sparrows and Allies"],"class":["901"],"trial_type":"image-multi-choice","trial_index":238,"time_elapsed":1102464,"internal_node_id":"0.0-1.0-237.0"},{"rt":1168,"responses":"{\"Q0\":\"Tennessee Warbler\"}","bird":["Swamp Sparrow"],"family":["New World Sparrows and Allies"],"class":["904"],"trial_type":"image-multi-choice","trial_index":239,"time_elapsed":1104641,"internal_node_id":"0.0-1.0-238.0"},{"rt":1378,"responses":"{\"Q0\":\"Northern Waterthrush\"}","bird":["Fox Sparrow"],"family":["New World Sparrows and Allies"],"class":["901"],"trial_type":"image-multi-choice","trial_index":240,"time_elapsed":1111770,"internal_node_id":"0.0-1.0-239.0"},{"rt":764,"responses":"{\"Q0\":\"Song Sparrow\"}","bird":["Orange-crowned Warbler"],"family":["Wood-Warblers"],"class":["867"],"trial_type":"image-multi-choice","trial_index":241,"time_elapsed":1113544,"internal_node_id":"0.0-1.0-240.0"},{"rt":661,"responses":"{\"Q0\":\"Fox Sparrow\"}","bird":["White-crowned Sparrow"],"family":["New World Sparrows and Allies"],"class":["766"],"trial_type":"image-multi-choice","trial_index":242,"time_elapsed":1115216,"internal_node_id":"0.0-1.0-241.0"},{"rt":1686,"responses":"{\"Q0\":\"Townsend's Warbler\"}","bird":["White-throated Sparrow"],"family":["New World Sparrows and Allies"],"class":["764"],"trial_type":"image-multi-choice","trial_index":243,"time_elapsed":1117912,"internal_node_id":"0.0-1.0-242.0"},{"rt":1463,"responses":"{\"Q0\":\"Chipping Sparrow\"}","bird":["Song Sparrow"],"family":["New World Sparrows and Allies"],"class":["902"],"trial_type":"image-multi-choice","trial_index":244,"time_elapsed":1120383,"internal_node_id":"0.0-1.0-243.0"},{"rt":948,"responses":"{\"Q0\":\"Lincoln's Sparrow\"}","bird":["Lark Sparrow"],"family":["New World Sparrows and Allies"],"class":["899"],"trial_type":"image-multi-choice","trial_index":245,"time_elapsed":1122343,"internal_node_id":"0.0-1.0-244.0"},{"rt":1357,"responses":"{\"Q0\":\"American Tree Sparrow\"}","bird":["Vesper Sparrow"],"family":["New World Sparrows and Allies"],"class":["898"],"trial_type":"image-multi-choice","trial_index":246,"time_elapsed":1124712,"internal_node_id":"0.0-1.0-245.0"},{"rt":676,"responses":"{\"Q0\":\"Orange-crowned Warbler\"}","bird":["Lark Sparrow"],"family":["New World Sparrows and Allies"],"class":["899"],"trial_type":"image-multi-choice","trial_index":247,"time_elapsed":1126399,"internal_node_id":"0.0-1.0-246.0"},{"rt":646,"responses":"{\"Q0\":\"Fox Sparrow\"}","bird":["American Tree Sparrow"],"family":["New World Sparrows and Allies"],"class":["894"],"trial_type":"image-multi-choice","trial_index":248,"time_elapsed":1128055,"internal_node_id":"0.0-1.0-247.0"},{"rt":2371,"responses":"{\"Q0\":\"Northern Waterthrush\"}","bird":["Black-and-white Warbler"],"family":["Wood-Warblers"],"class":["864"],"trial_type":"image-multi-choice","trial_index":249,"time_elapsed":1131439,"internal_node_id":"0.0-1.0-248.0"},{"rt":3701,"responses":"{\"Q0\":\"Tennessee Warbler\"}","bird":["Lark Sparrow"],"family":["New World Sparrows and Allies"],"class":["899"],"trial_type":"image-multi-choice","trial_index":250,"time_elapsed":1136151,"internal_node_id":"0.0-1.0-249.0"},{"rt":1124,"responses":"{\"Q0\":\"White-crowned Sparrow\"}","bird":["Orange-crowned Warbler"],"family":["Wood-Warblers"],"class":["867"],"trial_type":"image-multi-choice","trial_index":251,"time_elapsed":1138287,"internal_node_id":"0.0-1.0-250.0"},{"rt":970,"responses":"{\"Q0\":\"Tennessee Warbler\"}","bird":["Blackburnian Warbler"],"family":["Wood-Warblers"],"class":["874"],"trial_type":"image-multi-choice","trial_index":252,"time_elapsed":1140270,"internal_node_id":"0.0-1.0-251.0"},{"rt":886,"responses":"{\"Q0\":\"Chipping Sparrow\"}","bird":["Vesper Sparrow"],"family":["New World Sparrows and Allies"],"class":["898"],"trial_type":"image-multi-choice","trial_index":253,"time_elapsed":1142167,"internal_node_id":"0.0-1.0-252.0"},{"rt":604,"responses":"{\"Q0\":\"Magnolia Warbler\"}","bird":["Townsend's Warbler"],"family":["Wood-Warblers"],"class":["881"],"trial_type":"image-multi-choice","trial_index":254,"time_elapsed":1143782,"internal_node_id":"0.0-1.0-253.0"},{"rt":477,"responses":"{\"Q0\":\"Orange-crowned Warbler\"}","bird":["Swamp Sparrow"],"family":["New World Sparrows and Allies"],"class":["904"],"trial_type":"image-multi-choice","trial_index":255,"time_elapsed":1145271,"internal_node_id":"0.0-1.0-254.0"},{"rt":445,"responses":"{\"Q0\":\"White-throated Sparrow\"}","bird":["Song Sparrow"],"family":["New World Sparrows and Allies"],"class":["902"],"trial_type":"image-multi-choice","trial_index":256,"time_elapsed":1146726,"internal_node_id":"0.0-1.0-255.0"},{"rt":509,"responses":"{\"Q0\":\"Vesper Sparrow\"}","bird":["Swamp Sparrow"],"family":["New World Sparrows and Allies"],"class":["904"],"trial_type":"image-multi-choice","trial_index":257,"time_elapsed":1148246,"internal_node_id":"0.0-1.0-256.0"},{"rt":601,"responses":"{\"Q0\":\"Townsend's Warbler\"}","bird":["Ovenbird"],"family":["Wood-Warblers"],"class":["860"],"trial_type":"image-multi-choice","trial_index":258,"time_elapsed":1149863,"internal_node_id":"0.0-1.0-257.0"},{"rt":504,"responses":"{\"Q0\":\"Vesper Sparrow\"}","bird":["Black-and-white Warbler"],"family":["Wood-Warblers"],"class":["864"],"trial_type":"image-multi-choice","trial_index":259,"time_elapsed":1151382,"internal_node_id":"0.0-1.0-258.0"},{"rt":686,"responses":"{\"Q0\":\"Ovenbird\"}","bird":["American Tree Sparrow"],"family":["New World Sparrows and Allies"],"class":["894"],"trial_type":"image-multi-choice","trial_index":260,"time_elapsed":1153078,"internal_node_id":"0.0-1.0-259.0"},{"rt":595,"responses":"{\"Q0\":\"Chipping Sparrow\"}","bird":["Yellow Warbler"],"family":["Wood-Warblers"],"class":["875"],"trial_type":"image-multi-choice","trial_index":261,"time_elapsed":1154686,"internal_node_id":"0.0-1.0-260.0"},{"rt":424,"responses":"{\"Q0\":\"Lincoln's Sparrow\"}","bird":["Vesper Sparrow"],"family":["New World Sparrows and Allies"],"class":["898"],"trial_type":"image-multi-choice","trial_index":262,"time_elapsed":1156126,"internal_node_id":"0.0-1.0-261.0"},{"rt":725,"responses":"{\"Q0\":\"Orange-crowned Warbler\"}","bird":["Chipping Sparrow"],"family":["New World Sparrows and Allies"],"class":["769"],"trial_type":"image-multi-choice","trial_index":263,"time_elapsed":1157862,"internal_node_id":"0.0-1.0-262.0"},{"rt":784,"responses":"{\"Q0\":\"Lark Sparrow\"}","bird":["Northern Waterthrush"],"family":["Wood-Warblers"],"class":["862"],"trial_type":"image-multi-choice","trial_index":264,"time_elapsed":1159662,"internal_node_id":"0.0-1.0-263.0"},{"rt":504,"responses":"{\"Q0\":\"Chipping Sparrow\"}","bird":["Song Sparrow"],"family":["New World Sparrows and Allies"],"class":["902"],"trial_type":"image-multi-choice","trial_index":265,"time_elapsed":1161182,"internal_node_id":"0.0-1.0-264.0"},{"rt":589,"responses":"{\"Q0\":\"Lark Sparrow\"}","bird":["Nashville Warbler"],"family":["Wood-Warblers"],"class":["868"],"trial_type":"image-multi-choice","trial_index":266,"time_elapsed":1162782,"internal_node_id":"0.0-1.0-265.0"},{"rt":469,"responses":"{\"Q0\":\"Magnolia Warbler\"}","bird":["White-throated Sparrow"],"family":["New World Sparrows and Allies"],"class":["764"],"trial_type":"image-multi-choice","trial_index":267,"time_elapsed":1164262,"internal_node_id":"0.0-1.0-266.0"},{"rt":338,"responses":"{\"Q0\":\"Northern Waterthrush\"}","bird":["White-crowned Sparrow"],"family":["New World Sparrows and Allies"],"class":["766"],"trial_type":"image-multi-choice","trial_index":268,"time_elapsed":1165614,"internal_node_id":"0.0-1.0-267.0"},{"rt":348,"responses":"{\"Q0\":\"Song Sparrow\"}","bird":["American Tree Sparrow"],"family":["New World Sparrows and Allies"],"class":["894"],"trial_type":"image-multi-choice","trial_index":269,"time_elapsed":1166974,"internal_node_id":"0.0-1.0-268.0"},{"rt":314,"responses":"{\"Q0\":\"Townsend's Warbler\"}","bird":["White-throated Sparrow"],"family":["New World Sparrows and Allies"],"class":["764"],"trial_type":"image-multi-choice","trial_index":270,"time_elapsed":1168301,"internal_node_id":"0.0-1.0-269.0"},{"rt":582,"responses":"{\"Q0\":\"Yellow Warbler\"}","bird":["White-crowned Sparrow"],"family":["New World Sparrows and Allies"],"class":["766"],"trial_type":"image-multi-choice","trial_index":271,"time_elapsed":1169893,"internal_node_id":"0.0-1.0-270.0"},{"rt":2433,"responses":"{\"Q0\":\"Ovenbird\"}","bird":["Yellow Warbler"],"family":["Wood-Warblers"],"class":["875"],"trial_type":"image-multi-choice","trial_index":272,"time_elapsed":1173341,"internal_node_id":"0.0-1.0-271.0"},{"rt":774,"responses":"{\"Q0\":\"Northern Waterthrush\"}","bird":["Chipping Sparrow"],"family":["New World Sparrows and Allies"],"class":["769"],"trial_type":"image-multi-choice","trial_index":273,"time_elapsed":1175126,"internal_node_id":"0.0-1.0-272.0"},{"rt":3685,"responses":"{\"Q0\":\"Townsend's Warbler\"}","bird":["Ovenbird"],"family":["Wood-Warblers"],"class":["860"],"trial_type":"image-multi-choice","trial_index":274,"time_elapsed":1179822,"internal_node_id":"0.0-1.0-273.0"},{"rt":747,"responses":"{\"Q0\":\"Magnolia Warbler\"}","bird":["Northern Waterthrush"],"family":["Wood-Warblers"],"class":["862"],"trial_type":"image-multi-choice","trial_index":275,"time_elapsed":1181581,"internal_node_id":"0.0-1.0-274.0"},{"rt":580,"responses":"{\"Q0\":\"Orange-crowned Warbler\"}","bird":["Ovenbird"],"family":["Wood-Warblers"],"class":["860"],"trial_type":"image-multi-choice","trial_index":276,"time_elapsed":1183173,"internal_node_id":"0.0-1.0-275.0"},{"rt":1917,"responses":"{\"Q0\":\"Nashville Warbler\"}","bird":["Black-and-white Warbler"],"family":["Wood-Warblers"],"class":["864"],"trial_type":"image-multi-choice","trial_index":277,"time_elapsed":1186102,"internal_node_id":"0.0-1.0-276.0"},{"rt":1966,"responses":"{\"Q0\":\"White-crowned Sparrow\"}","bird":["Chipping Sparrow"],"family":["New World Sparrows and Allies"],"class":["769"],"trial_type":"image-multi-choice","trial_index":278,"time_elapsed":1189085,"internal_node_id":"0.0-1.0-277.0"},{"rt":769,"responses":"{\"Q0\":\"Lincoln's Sparrow\"}","bird":["Fox Sparrow"],"family":["New World Sparrows and Allies"],"class":["901"],"trial_type":"image-multi-choice","trial_index":279,"time_elapsed":1190868,"internal_node_id":"0.0-1.0-278.0"},{"rt":509,"responses":"{\"Q0\":\"Orange-crowned Warbler\"}","bird":["Magnolia Warbler"],"family":["Wood-Warblers"],"class":["758"],"trial_type":"image-multi-choice","trial_index":280,"time_elapsed":1192388,"internal_node_id":"0.0-1.0-279.0"},{"rt":619,"responses":"{\"Q0\":\"Townsend's Warbler\"}","bird":["White-crowned Sparrow"],"family":["New World Sparrows and Allies"],"class":["766"],"trial_type":"image-multi-choice","trial_index":281,"time_elapsed":1194020,"internal_node_id":"0.0-1.0-280.0"},{"rt":453,"responses":"{\"Q0\":\"White-throated Sparrow\"}","bird":["White-throated Sparrow"],"family":["New World Sparrows and Allies"],"class":["764"],"trial_type":"image-multi-choice","trial_index":282,"time_elapsed":1195484,"internal_node_id":"0.0-1.0-281.0"},{"rt":579,"responses":"{\"Q0\":\"Black-and-white Warbler\"}","bird":["Swamp Sparrow"],"family":["New World Sparrows and Allies"],"class":["904"],"trial_type":"image-multi-choice","trial_index":283,"time_elapsed":1197076,"internal_node_id":"0.0-1.0-282.0"},{"rt":435,"responses":"{\"Q0\":\"Fox Sparrow\"}","bird":["Magnolia Warbler"],"family":["Wood-Warblers"],"class":["758"],"trial_type":"image-multi-choice","trial_index":284,"time_elapsed":1198524,"internal_node_id":"0.0-1.0-283.0"},{"rt":708,"responses":"{\"Q0\":\"Lincoln's Sparrow\"}","bird":["Orange-crowned Warbler"],"family":["Wood-Warblers"],"class":["867"],"trial_type":"image-multi-choice","trial_index":285,"time_elapsed":1200244,"internal_node_id":"0.0-1.0-284.0"},{"rt":3234,"responses":"{\"Q0\":\"Black-and-white Warbler\"}","bird":["Magnolia Warbler"],"family":["Wood-Warblers"],"class":["758"],"trial_type":"image-multi-choice","trial_index":286,"time_elapsed":1204492,"internal_node_id":"0.0-1.0-285.0"},{"rt":939,"responses":"{\"Q0\":\"Fox Sparrow\"}","bird":["Vesper Sparrow"],"family":["New World Sparrows and Allies"],"class":["898"],"trial_type":"image-multi-choice","trial_index":287,"time_elapsed":1206445,"internal_node_id":"0.0-1.0-286.0"},{"rt":1227,"responses":"{\"Q0\":\"Song Sparrow\"}","bird":["Northern Waterthrush"],"family":["Wood-Warblers"],"class":["862"],"trial_type":"image-multi-choice","trial_index":288,"time_elapsed":1208684,"internal_node_id":"0.0-1.0-287.0"},{"rt":643,"responses":"{\"Q0\":\"Townsend's Warbler\"}","bird":["Blackburnian Warbler"],"family":["Wood-Warblers"],"class":["874"],"trial_type":"image-multi-choice","trial_index":289,"time_elapsed":1210340,"internal_node_id":"0.0-1.0-288.0"},{"rt":621,"responses":"{\"Q0\":\"Swamp Sparrow\"}","bird":["Tennessee Warbler"],"family":["Wood-Warblers"],"class":["866"],"trial_type":"image-multi-choice","trial_index":290,"time_elapsed":1211972,"internal_node_id":"0.0-1.0-289.0"},{"rt":668,"responses":"{\"Q0\":\"Townsend's Warbler\"}","bird":["Lark Sparrow"],"family":["New World Sparrows and Allies"],"class":["899"],"trial_type":"image-multi-choice","trial_index":291,"time_elapsed":1213650,"internal_node_id":"0.0-1.0-290.0"},{"rt":338,"responses":"{\"Q0\":\"Orange-crowned Warbler\"}","bird":["Black-and-white Warbler"],"family":["Wood-Warblers"],"class":["864"],"trial_type":"image-multi-choice","trial_index":292,"time_elapsed":1215003,"internal_node_id":"0.0-1.0-291.0"},{"rt":1029,"responses":"{\"Q0\":\"Yellow Warbler\"}","bird":["Lincoln's Sparrow"],"family":["New World Sparrows and Allies"],"class":["903"],"trial_type":"image-multi-choice","trial_index":293,"time_elapsed":1217044,"internal_node_id":"0.0-1.0-292.0"},{"rt":371,"responses":"{\"Q0\":\"White-crowned Sparrow\"}","bird":["Tennessee Warbler"],"family":["Wood-Warblers"],"class":["866"],"trial_type":"image-multi-choice","trial_index":294,"time_elapsed":1218428,"internal_node_id":"0.0-1.0-293.0"},{"rt":534,"responses":"{\"Q0\":\"Orange-crowned Warbler\"}","bird":["Ovenbird"],"family":["Wood-Warblers"],"class":["860"],"trial_type":"image-multi-choice","trial_index":295,"time_elapsed":1219971,"internal_node_id":"0.0-1.0-294.0"},{"rt":1723,"responses":"{\"Q0\":\"Lark Sparrow\"}","bird":["Vesper Sparrow"],"family":["New World Sparrows and Allies"],"class":["898"],"trial_type":"image-multi-choice","trial_index":296,"time_elapsed":1222707,"internal_node_id":"0.0-1.0-295.0"},{"rt":782,"responses":"{\"Q0\":\"White-crowned Sparrow\"}","bird":["Northern Waterthrush"],"family":["Wood-Warblers"],"class":["862"],"trial_type":"image-multi-choice","trial_index":297,"time_elapsed":1224498,"internal_node_id":"0.0-1.0-296.0"},{"rt":503,"responses":"{\"Q0\":\"Fox Sparrow\"}","bird":["Chipping Sparrow"],"family":["New World Sparrows and Allies"],"class":["769"],"trial_type":"image-multi-choice","trial_index":298,"time_elapsed":1226011,"internal_node_id":"0.0-1.0-297.0"},{"rt":1557,"responses":"{\"Q0\":\"Nashville Warbler\"}","bird":["Lark Sparrow"],"family":["New World Sparrows and Allies"],"class":["899"],"trial_type":"image-multi-choice","trial_index":299,"time_elapsed":1228579,"internal_node_id":"0.0-1.0-298.0"},{"rt":936,"responses":"{\"Q0\":\"Swamp Sparrow\"}","bird":["Yellow Warbler"],"family":["Wood-Warblers"],"class":["875"],"trial_type":"image-multi-choice","trial_index":300,"time_elapsed":1234925,"internal_node_id":"0.0-1.0-299.0"},{"view_history":"[{\"page_index\":0,\"viewing_time\":1560}]","rt":1560,"trial_type":"instructions","trial_index":301,"time_elapsed":1237488,"internal_node_id":"0.0-2.0"}]