"view_history","rt","trial_type","trial_index","time_elapsed","internal_node_id","responses","bird","family","class"
"[{""page_index"":0,""viewing_time"":17485}]","17486","instructions","0","17488","0.0-0.0","","","",""
"","10305","image-multi-choice","1","28817","0.0-1.0-0.0","{""Q0"":""Song Sparrow""}","Townsend's Warbler","Wood-Warblers","881"
"","6495","image-multi-choice","2","36329","0.0-1.0-1.0","{""Q0"":""Vesper Sparrow""}","Lark Sparrow","New World Sparrows and Allies","899"
"","4025","image-multi-choice","3","41372","0.0-1.0-2.0","{""Q0"":""Fox Sparrow""}","White-crowned Sparrow","New World Sparrows and Allies","766"
"","2316","image-multi-choice","4","44702","0.0-1.0-3.0","{""Q0"":""Swamp Sparrow""}","Lark Sparrow","New World Sparrows and Allies","899"
"","4072","image-multi-choice","5","49792","0.0-1.0-4.0","{""Q0"":""American Tree Sparrow""}","White-throated Sparrow","New World Sparrows and Allies","764"
"","13204","image-multi-choice","6","64012","0.0-1.0-5.0","{""Q0"":""Northern Waterthrush""}","White-crowned Sparrow","New World Sparrows and Allies","766"
"","3116","image-multi-choice","7","68142","0.0-1.0-6.0","{""Q0"":""Vesper Sparrow""}","Tennessee Warbler","Wood-Warblers","866"
"","1907","image-multi-choice","8","71061","0.0-1.0-7.0","{""Q0"":""Lincoln's Sparrow""}","White-crowned Sparrow","New World Sparrows and Allies","766"
"","2240","image-multi-choice","9","74314","0.0-1.0-8.0","{""Q0"":""Yellow Warbler""}","Orange-crowned Warbler","Wood-Warblers","867"
"","1593","image-multi-choice","10","76918","0.0-1.0-9.0","{""Q0"":""Fox Sparrow""}","Swamp Sparrow","New World Sparrows and Allies","904"
"","1694","image-multi-choice","11","79627","0.0-1.0-10.0","{""Q0"":""Lincoln's Sparrow""}","Orange-crowned Warbler","Wood-Warblers","867"
"","3875","image-multi-choice","12","84512","0.0-1.0-11.0","{""Q0"":""Chipping Sparrow""}","White-crowned Sparrow","New World Sparrows and Allies","766"
"","2517","image-multi-choice","13","88041","0.0-1.0-12.0","{""Q0"":""Song Sparrow""}","Townsend's Warbler","Wood-Warblers","881"
"","2367","image-multi-choice","14","91422","0.0-1.0-13.0","{""Q0"":""Ovenbird""}","Lincoln's Sparrow","New World Sparrows and Allies","903"
"","1758","image-multi-choice","15","94193","0.0-1.0-14.0","{""Q0"":""Vesper Sparrow""}","Ovenbird","Wood-Warblers","860"
"","1567","image-multi-choice","16","96774","0.0-1.0-15.0","{""Q0"":""Lark Sparrow""}","Tennessee Warbler","Wood-Warblers","866"
"","1542","image-multi-choice","17","99327","0.0-1.0-16.0","{""Q0"":""Northern Waterthrush""}","Vesper Sparrow","New World Sparrows and Allies","898"
"","1611","image-multi-choice","18","101949","0.0-1.0-17.0","{""Q0"":""Yellow Warbler""}","Tennessee Warbler","Wood-Warblers","866"
"","1860","image-multi-choice","19","104826","0.0-1.0-18.0","{""Q0"":""Black-and-white Warbler""}","Vesper Sparrow","New World Sparrows and Allies","898"
"","1981","image-multi-choice","20","107819","0.0-1.0-19.0","{""Q0"":""Blackburnian Warbler""}","Song Sparrow","New World Sparrows and Allies","902"
"","2244","image-multi-choice","21","111074","0.0-1.0-20.0","{""Q0"":""Magnolia Warbler""}","Magnolia Warbler","Wood-Warblers","758"
"","1372","image-multi-choice","22","113457","0.0-1.0-21.0","{""Q0"":""Nashville Warbler""}","Orange-crowned Warbler","Wood-Warblers","867"
"","3203","image-multi-choice","23","117673","0.0-1.0-22.0","{""Q0"":""Chipping Sparrow""}","Townsend's Warbler","Wood-Warblers","881"
"","2643","image-multi-choice","24","121329","0.0-1.0-23.0","{""Q0"":""White-throated Sparrow""}","Ovenbird","Wood-Warblers","860"
"","2260","image-multi-choice","25","124604","0.0-1.0-24.0","{""Q0"":""Black-and-white Warbler""}","Lincoln's Sparrow","New World Sparrows and Allies","903"
"","1634","image-multi-choice","26","127249","0.0-1.0-25.0","{""Q0"":""Vesper Sparrow""}","White-throated Sparrow","New World Sparrows and Allies","764"
"","1022","image-multi-choice","27","129288","0.0-1.0-26.0","{""Q0"":""White-throated Sparrow""}","Ovenbird","Wood-Warblers","860"
"","2668","image-multi-choice","28","132966","0.0-1.0-27.0","{""Q0"":""Lark Sparrow""}","Chipping Sparrow","New World Sparrows and Allies","769"
"","1814","image-multi-choice","29","135794","0.0-1.0-28.0","{""Q0"":""American Tree Sparrow""}","Fox Sparrow","New World Sparrows and Allies","901"
"","1455","image-multi-choice","30","138259","0.0-1.0-29.0","{""Q0"":""Ovenbird""}","Magnolia Warbler","Wood-Warblers","758"
"","1825","image-multi-choice","31","141094","0.0-1.0-30.0","{""Q0"":""Lark Sparrow""}","Northern Waterthrush","Wood-Warblers","862"
"","27122","image-multi-choice","32","169232","0.0-1.0-31.0","{""Q0"":""Townsend's Warbler""}","Tennessee Warbler","Wood-Warblers","866"
"","1865","image-multi-choice","33","172111","0.0-1.0-32.0","{""Q0"":""Blackburnian Warbler""}","Magnolia Warbler","Wood-Warblers","758"
"","1165","image-multi-choice","34","174288","0.0-1.0-33.0","{""Q0"":""White-crowned Sparrow""}","Song Sparrow","New World Sparrows and Allies","902"
"","3085","image-multi-choice","35","178385","0.0-1.0-34.0","{""Q0"":""American Tree Sparrow""}","Lark Sparrow","New World Sparrows and Allies","899"
"","8180","image-multi-choice","36","187574","0.0-1.0-35.0","{""Q0"":""Swamp Sparrow""}","Nashville Warbler","Wood-Warblers","868"
"","1792","image-multi-choice","37","190382","0.0-1.0-36.0","{""Q0"":""Swamp Sparrow""}","Northern Waterthrush","Wood-Warblers","862"
"","2841","image-multi-choice","38","194234","0.0-1.0-37.0","{""Q0"":""Orange-crowned Warbler""}","Chipping Sparrow","New World Sparrows and Allies","769"
"","1433","image-multi-choice","39","196678","0.0-1.0-38.0","{""Q0"":""Lark Sparrow""}","Yellow Warbler","Wood-Warblers","875"
"","5133","image-multi-choice","40","202824","0.0-1.0-39.0","{""Q0"":""Song Sparrow""}","Ovenbird","Wood-Warblers","860"
"","2599","image-multi-choice","41","206436","0.0-1.0-40.0","{""Q0"":""Lark Sparrow""}","Black-and-white Warbler","Wood-Warblers","864"
"","1035","image-multi-choice","42","208484","0.0-1.0-41.0","{""Q0"":""Townsend's Warbler""}","Tennessee Warbler","Wood-Warblers","866"
"","1826","image-multi-choice","43","211320","0.0-1.0-42.0","{""Q0"":""Fox Sparrow""}","Song Sparrow","New World Sparrows and Allies","902"
"","8563","image-multi-choice","44","220897","0.0-1.0-43.0","{""Q0"":""Tennessee Warbler""}","Blackburnian Warbler","Wood-Warblers","874"
"","1346","image-multi-choice","45","223257","0.0-1.0-44.0","{""Q0"":""Song Sparrow""}","Black-and-white Warbler","Wood-Warblers","864"
"","1982","image-multi-choice","46","226251","0.0-1.0-45.0","{""Q0"":""Lincoln's Sparrow""}","Magnolia Warbler","Wood-Warblers","758"
"","3487","image-multi-choice","47","230752","0.0-1.0-46.0","{""Q0"":""Swamp Sparrow""}","Ovenbird","Wood-Warblers","860"
"","9270","image-multi-choice","48","241035","0.0-1.0-47.0","{""Q0"":""Magnolia Warbler""}","Vesper Sparrow","New World Sparrows and Allies","898"
"","1109","image-multi-choice","49","243157","0.0-1.0-48.0","{""Q0"":""Blackburnian Warbler""}","Lark Sparrow","New World Sparrows and Allies","899"
"","1356","image-multi-choice","50","245525","0.0-1.0-49.0","{""Q0"":""American Tree Sparrow""}","Black-and-white Warbler","Wood-Warblers","864"
"","1305","image-multi-choice","51","247843","0.0-1.0-50.0","{""Q0"":""White-crowned Sparrow""}","Townsend's Warbler","Wood-Warblers","881"
"","1111","image-multi-choice","52","249962","0.0-1.0-51.0","{""Q0"":""Song Sparrow""}","Nashville Warbler","Wood-Warblers","868"
"","1733","image-multi-choice","53","252708","0.0-1.0-52.0","{""Q0"":""Orange-crowned Warbler""}","Chipping Sparrow","New World Sparrows and Allies","769"
"","1040","image-multi-choice","54","254758","0.0-1.0-53.0","{""Q0"":""White-crowned Sparrow""}","Swamp Sparrow","New World Sparrows and Allies","904"
"","1378","image-multi-choice","55","257145","0.0-1.0-54.0","{""Q0"":""Nashville Warbler""}","White-crowned Sparrow","New World Sparrows and Allies","766"
"","1357","image-multi-choice","56","259516","0.0-1.0-55.0","{""Q0"":""Orange-crowned Warbler""}","Black-and-white Warbler","Wood-Warblers","864"
"","1289","image-multi-choice","57","261816","0.0-1.0-56.0","{""Q0"":""Magnolia Warbler""}","Tennessee Warbler","Wood-Warblers","866"
"","1619","image-multi-choice","58","264448","0.0-1.0-57.0","{""Q0"":""Orange-crowned Warbler""}","Townsend's Warbler","Wood-Warblers","881"
"","1494","image-multi-choice","59","266952","0.0-1.0-58.0","{""Q0"":""Ovenbird""}","Nashville Warbler","Wood-Warblers","868"
"","1227","image-multi-choice","60","278603","0.0-1.0-59.0","{""Q0"":""Nashville Warbler""}","Lincoln's Sparrow","New World Sparrows and Allies","903"
"","4461","image-multi-choice","61","284076","0.0-1.0-60.0","{""Q0"":""Magnolia Warbler""}","Song Sparrow","New World Sparrows and Allies","902"
"","25424","image-multi-choice","62","310514","0.0-1.0-61.0","{""Q0"":""Northern Waterthrush""}","Yellow Warbler","Wood-Warblers","875"
"","3635","image-multi-choice","63","315159","0.0-1.0-62.0","{""Q0"":""Black-and-white Warbler""}","White-throated Sparrow","New World Sparrows and Allies","764"
"","3162","image-multi-choice","64","319334","0.0-1.0-63.0","{""Q0"":""Swamp Sparrow""}","Tennessee Warbler","Wood-Warblers","866"
"","3287","image-multi-choice","65","323632","0.0-1.0-64.0","{""Q0"":""Lark Sparrow""}","Lincoln's Sparrow","New World Sparrows and Allies","903"
"","4737","image-multi-choice","66","329382","0.0-1.0-65.0","{""Q0"":""Black-and-white Warbler""}","Blackburnian Warbler","Wood-Warblers","874"
"","4507","image-multi-choice","67","334901","0.0-1.0-66.0","{""Q0"":""Magnolia Warbler""}","Northern Waterthrush","Wood-Warblers","862"
"","3408","image-multi-choice","68","339322","0.0-1.0-67.0","{""Q0"":""Northern Waterthrush""}","Yellow Warbler","Wood-Warblers","875"
"","2244","image-multi-choice","69","342580","0.0-1.0-68.0","{""Q0"":""Lark Sparrow""}","Lincoln's Sparrow","New World Sparrows and Allies","903"
"","1759","image-multi-choice","70","345351","0.0-1.0-69.0","{""Q0"":""Tennessee Warbler""}","American Tree Sparrow","New World Sparrows and Allies","894"
"","1294","image-multi-choice","71","347658","0.0-1.0-70.0","{""Q0"":""Vesper Sparrow""}","Orange-crowned Warbler","Wood-Warblers","867"
"","1730","image-multi-choice","72","350399","0.0-1.0-71.0","{""Q0"":""Tennessee Warbler""}","Lincoln's Sparrow","New World Sparrows and Allies","903"
"","1914","image-multi-choice","73","353325","0.0-1.0-72.0","{""Q0"":""Lark Sparrow""}","Magnolia Warbler","Wood-Warblers","758"
"","1653","image-multi-choice","74","355990","0.0-1.0-73.0","{""Q0"":""Song Sparrow""}","Lincoln's Sparrow","New World Sparrows and Allies","903"
"","3327","image-multi-choice","75","360333","0.0-1.0-74.0","{""Q0"":""Northern Waterthrush""}","Yellow Warbler","Wood-Warblers","875"
"","2610","image-multi-choice","76","363958","0.0-1.0-75.0","{""Q0"":""Tennessee Warbler""}","White-crowned Sparrow","New World Sparrows and Allies","766"
"","6857","image-multi-choice","77","371827","0.0-1.0-76.0","{""Q0"":""Chipping Sparrow""}","Nashville Warbler","Wood-Warblers","868"
"","6315","image-multi-choice","78","379155","0.0-1.0-77.0","{""Q0"":""White-throated Sparrow""}","American Tree Sparrow","New World Sparrows and Allies","894"
"","4128","image-multi-choice","79","384298","0.0-1.0-78.0","{""Q0"":""Blackburnian Warbler""}","Townsend's Warbler","Wood-Warblers","881"
"","3276","image-multi-choice","80","388587","0.0-1.0-79.0","{""Q0"":""White-crowned Sparrow""}","Chipping Sparrow","New World Sparrows and Allies","769"
"","3856","image-multi-choice","81","393456","0.0-1.0-80.0","{""Q0"":""White-throated Sparrow""}","White-throated Sparrow","New World Sparrows and Allies","764"
"","3224","image-multi-choice","82","397695","0.0-1.0-81.0","{""Q0"":""Orange-crowned Warbler""}","Ovenbird","Wood-Warblers","860"
"","4298","image-multi-choice","83","403003","0.0-1.0-82.0","{""Q0"":""Fox Sparrow""}","White-crowned Sparrow","New World Sparrows and Allies","766"
"","2312","image-multi-choice","84","406328","0.0-1.0-83.0","{""Q0"":""Chipping Sparrow""}","Magnolia Warbler","Wood-Warblers","758"
"","1365","image-multi-choice","85","408705","0.0-1.0-84.0","{""Q0"":""Tennessee Warbler""}","Yellow Warbler","Wood-Warblers","875"
"","1662","image-multi-choice","86","411380","0.0-1.0-85.0","{""Q0"":""Nashville Warbler""}","Lark Sparrow","New World Sparrows and Allies","899"
"","1750","image-multi-choice","87","414144","0.0-1.0-86.0","{""Q0"":""Chipping Sparrow""}","Lincoln's Sparrow","New World Sparrows and Allies","903"
"","1328","image-multi-choice","88","416484","0.0-1.0-87.0","{""Q0"":""Song Sparrow""}","Black-and-white Warbler","Wood-Warblers","864"
"","1914","image-multi-choice","89","419412","0.0-1.0-88.0","{""Q0"":""Black-and-white Warbler""}","White-crowned Sparrow","New World Sparrows and Allies","766"
"","1658","image-multi-choice","90","422079","0.0-1.0-89.0","{""Q0"":""American Tree Sparrow""}","Townsend's Warbler","Wood-Warblers","881"
"","1456","image-multi-choice","91","424547","0.0-1.0-90.0","{""Q0"":""Chipping Sparrow""}","White-throated Sparrow","New World Sparrows and Allies","764"
"","1654","image-multi-choice","92","427214","0.0-1.0-91.0","{""Q0"":""White-throated Sparrow""}","Magnolia Warbler","Wood-Warblers","758"
"","1168","image-multi-choice","93","429395","0.0-1.0-92.0","{""Q0"":""Yellow Warbler""}","Lincoln's Sparrow","New World Sparrows and Allies","903"
"","1515","image-multi-choice","94","431921","0.0-1.0-93.0","{""Q0"":""American Tree Sparrow""}","Blackburnian Warbler","Wood-Warblers","874"
"","1701","image-multi-choice","95","434637","0.0-1.0-94.0","{""Q0"":""Lark Sparrow""}","Vesper Sparrow","New World Sparrows and Allies","898"
"","1141","image-multi-choice","96","436792","0.0-1.0-95.0","{""Q0"":""White-crowned Sparrow""}","Lark Sparrow","New World Sparrows and Allies","899"
"","1368","image-multi-choice","97","439171","0.0-1.0-96.0","{""Q0"":""Northern Waterthrush""}","Swamp Sparrow","New World Sparrows and Allies","904"
"","1863","image-multi-choice","98","442046","0.0-1.0-97.0","{""Q0"":""Lincoln's Sparrow""}","Northern Waterthrush","Wood-Warblers","862"
"","1565","image-multi-choice","99","444623","0.0-1.0-98.0","{""Q0"":""Magnolia Warbler""}","Ovenbird","Wood-Warblers","860"
"","3037","image-multi-choice","100","448673","0.0-1.0-99.0","{""Q0"":""Ovenbird""}","White-throated Sparrow","New World Sparrows and Allies","764"
"","1901","image-multi-choice","101","451585","0.0-1.0-100.0","{""Q0"":""Tennessee Warbler""}","Nashville Warbler","Wood-Warblers","868"
"","2141","image-multi-choice","102","454734","0.0-1.0-101.0","{""Q0"":""Nashville Warbler""}","Magnolia Warbler","Wood-Warblers","758"
"","1311","image-multi-choice","103","457059","0.0-1.0-102.0","{""Q0"":""Lark Sparrow""}","Swamp Sparrow","New World Sparrows and Allies","904"
"","1558","image-multi-choice","104","459634","0.0-1.0-103.0","{""Q0"":""Magnolia Warbler""}","Blackburnian Warbler","Wood-Warblers","874"
"","2253","image-multi-choice","105","462898","0.0-1.0-104.0","{""Q0"":""Song Sparrow""}","Northern Waterthrush","Wood-Warblers","862"
"","2193","image-multi-choice","106","466102","0.0-1.0-105.0","{""Q0"":""Song Sparrow""}","Swamp Sparrow","New World Sparrows and Allies","904"
"","1478","image-multi-choice","107","468597","0.0-1.0-106.0","{""Q0"":""Fox Sparrow""}","Song Sparrow","New World Sparrows and Allies","902"
"","3695","image-multi-choice","108","473308","0.0-1.0-107.0","{""Q0"":""White-throated Sparrow""}","Black-and-white Warbler","Wood-Warblers","864"
"","2350","image-multi-choice","109","476672","0.0-1.0-108.0","{""Q0"":""Blackburnian Warbler""}","Blackburnian Warbler","Wood-Warblers","874"
"","1196","image-multi-choice","110","478878","0.0-1.0-109.0","{""Q0"":""White-crowned Sparrow""}","Nashville Warbler","Wood-Warblers","868"
"","1477","image-multi-choice","111","481371","0.0-1.0-110.0","{""Q0"":""Ovenbird""}","Chipping Sparrow","New World Sparrows and Allies","769"
"","1399","image-multi-choice","112","483780","0.0-1.0-111.0","{""Q0"":""Magnolia Warbler""}","American Tree Sparrow","New World Sparrows and Allies","894"
"","3017","image-multi-choice","113","487808","0.0-1.0-112.0","{""Q0"":""Townsend's Warbler""}","Northern Waterthrush","Wood-Warblers","862"
"","1947","image-multi-choice","114","490770","0.0-1.0-113.0","{""Q0"":""Song Sparrow""}","Yellow Warbler","Wood-Warblers","875"
"","1985","image-multi-choice","115","493765","0.0-1.0-114.0","{""Q0"":""Nashville Warbler""}","Tennessee Warbler","Wood-Warblers","866"
"","2198","image-multi-choice","116","496976","0.0-1.0-115.0","{""Q0"":""Lark Sparrow""}","Lincoln's Sparrow","New World Sparrows and Allies","903"
"","1457","image-multi-choice","117","499445","0.0-1.0-116.0","{""Q0"":""Nashville Warbler""}","Black-and-white Warbler","Wood-Warblers","864"
"","1564","image-multi-choice","118","502024","0.0-1.0-117.0","{""Q0"":""Swamp Sparrow""}","Song Sparrow","New World Sparrows and Allies","902"
"","2284","image-multi-choice","119","505320","0.0-1.0-118.0","{""Q0"":""Tennessee Warbler""}","Lincoln's Sparrow","New World Sparrows and Allies","903"
"","1961","image-multi-choice","120","618429","0.0-1.0-119.0","{""Q0"":""Lincoln's Sparrow""}","Blackburnian Warbler","Wood-Warblers","874"
"","3423","image-multi-choice","121","622865","0.0-1.0-120.0","{""Q0"":""Fox Sparrow""}","Nashville Warbler","Wood-Warblers","868"
"","2479","image-multi-choice","122","626354","0.0-1.0-121.0","{""Q0"":""Song Sparrow""}","Vesper Sparrow","New World Sparrows and Allies","898"
"","2430","image-multi-choice","123","629799","0.0-1.0-122.0","{""Q0"":""Fox Sparrow""}","Townsend's Warbler","Wood-Warblers","881"
"","2396","image-multi-choice","124","633210","0.0-1.0-123.0","{""Q0"":""Lincoln's Sparrow""}","Song Sparrow","New World Sparrows and Allies","902"
"","2732","image-multi-choice","125","636954","0.0-1.0-124.0","{""Q0"":""Vesper Sparrow""}","White-throated Sparrow","New World Sparrows and Allies","764"
"","3601","image-multi-choice","126","641568","0.0-1.0-125.0","{""Q0"":""Magnolia Warbler""}","Nashville Warbler","Wood-Warblers","868"
"","1608","image-multi-choice","127","644186","0.0-1.0-126.0","{""Q0"":""Magnolia Warbler""}","Fox Sparrow","New World Sparrows and Allies","901"
"","3584","image-multi-choice","128","648780","0.0-1.0-127.0","{""Q0"":""Black-and-white Warbler""}","Magnolia Warbler","Wood-Warblers","758"
"","3370","image-multi-choice","129","653161","0.0-1.0-128.0","{""Q0"":""Northern Waterthrush""}","Nashville Warbler","Wood-Warblers","868"
"","4250","image-multi-choice","130","658424","0.0-1.0-129.0","{""Q0"":""Lincoln's Sparrow""}","Swamp Sparrow","New World Sparrows and Allies","904"
"","2318","image-multi-choice","131","661756","0.0-1.0-130.0","{""Q0"":""Lark Sparrow""}","White-throated Sparrow","New World Sparrows and Allies","764"
"","1497","image-multi-choice","132","664266","0.0-1.0-131.0","{""Q0"":""White-throated Sparrow""}","Song Sparrow","New World Sparrows and Allies","902"
"","1738","image-multi-choice","133","667016","0.0-1.0-132.0","{""Q0"":""Blackburnian Warbler""}","Yellow Warbler","Wood-Warblers","875"
"","1662","image-multi-choice","134","669692","0.0-1.0-133.0","{""Q0"":""Fox Sparrow""}","Townsend's Warbler","Wood-Warblers","881"
"","1984","image-multi-choice","135","672690","0.0-1.0-134.0","{""Q0"":""Lincoln's Sparrow""}","Fox Sparrow","New World Sparrows and Allies","901"
"","1894","image-multi-choice","136","675595","0.0-1.0-135.0","{""Q0"":""Lincoln's Sparrow""}","White-crowned Sparrow","New World Sparrows and Allies","766"
"","1032","image-multi-choice","137","677635","0.0-1.0-136.0","{""Q0"":""Vesper Sparrow""}","Magnolia Warbler","Wood-Warblers","758"
"","3518","image-multi-choice","138","682168","0.0-1.0-137.0","{""Q0"":""Black-and-white Warbler""}","Blackburnian Warbler","Wood-Warblers","874"
"","2999","image-multi-choice","139","686181","0.0-1.0-138.0","{""Q0"":""Blackburnian Warbler""}","Magnolia Warbler","Wood-Warblers","758"
"","2132","image-multi-choice","140","689325","0.0-1.0-139.0","{""Q0"":""Northern Waterthrush""}","Chipping Sparrow","New World Sparrows and Allies","769"
"","31608","image-multi-choice","141","721945","0.0-1.0-140.0","{""Q0"":""Tennessee Warbler""}","American Tree Sparrow","New World Sparrows and Allies","894"
"","2702","image-multi-choice","142","725658","0.0-1.0-141.0","{""Q0"":""Magnolia Warbler""}","Orange-crowned Warbler","Wood-Warblers","867"
"","4202","image-multi-choice","143","730873","0.0-1.0-142.0","{""Q0"":""Blackburnian Warbler""}","Fox Sparrow","New World Sparrows and Allies","901"
"","2189","image-multi-choice","144","734075","0.0-1.0-143.0","{""Q0"":""White-crowned Sparrow""}","Yellow Warbler","Wood-Warblers","875"
"","4924","image-multi-choice","145","740011","0.0-1.0-144.0","{""Q0"":""Swamp Sparrow""}","American Tree Sparrow","New World Sparrows and Allies","894"
"","6404","image-multi-choice","146","747429","0.0-1.0-145.0","{""Q0"":""Orange-crowned Warbler""}","Swamp Sparrow","New World Sparrows and Allies","904"
"","5139","image-multi-choice","147","753584","0.0-1.0-146.0","{""Q0"":""Tennessee Warbler""}","Lark Sparrow","New World Sparrows and Allies","899"
"","3818","image-multi-choice","148","758418","0.0-1.0-147.0","{""Q0"":""Black-and-white Warbler""}","Vesper Sparrow","New World Sparrows and Allies","898"
"","1835","image-multi-choice","149","761268","0.0-1.0-148.0","{""Q0"":""White-throated Sparrow""}","Fox Sparrow","New World Sparrows and Allies","901"
"","3570","image-multi-choice","150","765850","0.0-1.0-149.0","{""Q0"":""American Tree Sparrow""}","Song Sparrow","New World Sparrows and Allies","902"
"","2731","image-multi-choice","151","769595","0.0-1.0-150.0","{""Q0"":""White-crowned Sparrow""}","Blackburnian Warbler","Wood-Warblers","874"
"","1614","image-multi-choice","152","772220","0.0-1.0-151.0","{""Q0"":""Orange-crowned Warbler""}","Orange-crowned Warbler","Wood-Warblers","867"
"","1589","image-multi-choice","153","774821","0.0-1.0-152.0","{""Q0"":""Lark Sparrow""}","Fox Sparrow","New World Sparrows and Allies","901"
"","1677","image-multi-choice","154","777512","0.0-1.0-153.0","{""Q0"":""White-crowned Sparrow""}","Orange-crowned Warbler","Wood-Warblers","867"
"","1458","image-multi-choice","155","779983","0.0-1.0-154.0","{""Q0"":""Orange-crowned Warbler""}","Townsend's Warbler","Wood-Warblers","881"
"","1652","image-multi-choice","156","782647","0.0-1.0-155.0","{""Q0"":""Magnolia Warbler""}","Ovenbird","Wood-Warblers","860"
"","1606","image-multi-choice","157","785267","0.0-1.0-156.0","{""Q0"":""Lincoln's Sparrow""}","Nashville Warbler","Wood-Warblers","868"
"","1762","image-multi-choice","158","788041","0.0-1.0-157.0","{""Q0"":""Northern Waterthrush""}","Song Sparrow","New World Sparrows and Allies","902"
"","2304","image-multi-choice","159","791355","0.0-1.0-158.0","{""Q0"":""Yellow Warbler""}","Yellow Warbler","Wood-Warblers","875"
"","3949","image-multi-choice","160","796318","0.0-1.0-159.0","{""Q0"":""Chipping Sparrow""}","Fox Sparrow","New World Sparrows and Allies","901"
"","2482","image-multi-choice","161","799812","0.0-1.0-160.0","{""Q0"":""Northern Waterthrush""}","Black-and-white Warbler","Wood-Warblers","864"
"","2282","image-multi-choice","162","803108","0.0-1.0-161.0","{""Q0"":""Fox Sparrow""}","Orange-crowned Warbler","Wood-Warblers","867"
"","2274","image-multi-choice","163","806395","0.0-1.0-162.0","{""Q0"":""Magnolia Warbler""}","American Tree Sparrow","New World Sparrows and Allies","894"
"","1800","image-multi-choice","164","809208","0.0-1.0-163.0","{""Q0"":""Lark Sparrow""}","Townsend's Warbler","Wood-Warblers","881"
"","1912","image-multi-choice","165","812131","0.0-1.0-164.0","{""Q0"":""Townsend's Warbler""}","Song Sparrow","New World Sparrows and Allies","902"
"","1289","image-multi-choice","166","814431","0.0-1.0-165.0","{""Q0"":""Townsend's Warbler""}","Nashville Warbler","Wood-Warblers","868"
"","1420","image-multi-choice","167","816864","0.0-1.0-166.0","{""Q0"":""Magnolia Warbler""}","Tennessee Warbler","Wood-Warblers","866"
"","2755","image-multi-choice","168","820629","0.0-1.0-167.0","{""Q0"":""Lark Sparrow""}","Chipping Sparrow","New World Sparrows and Allies","769"
"","2834","image-multi-choice","169","824474","0.0-1.0-168.0","{""Q0"":""Blackburnian Warbler""}","Ovenbird","Wood-Warblers","860"
"","2848","image-multi-choice","170","828335","0.0-1.0-169.0","{""Q0"":""White-throated Sparrow""}","White-throated Sparrow","New World Sparrows and Allies","764"
"","3076","image-multi-choice","171","832419","0.0-1.0-170.0","{""Q0"":""Black-and-white Warbler""}","Fox Sparrow","New World Sparrows and Allies","901"
"","2920","image-multi-choice","172","836352","0.0-1.0-171.0","{""Q0"":""Black-and-white Warbler""}","Blackburnian Warbler","Wood-Warblers","874"
"","3477","image-multi-choice","173","840843","0.0-1.0-172.0","{""Q0"":""Northern Waterthrush""}","American Tree Sparrow","New World Sparrows and Allies","894"
"","3127","image-multi-choice","174","844980","0.0-1.0-173.0","{""Q0"":""White-crowned Sparrow""}","Swamp Sparrow","New World Sparrows and Allies","904"
"","3539","image-multi-choice","175","849533","0.0-1.0-174.0","{""Q0"":""Magnolia Warbler""}","Townsend's Warbler","Wood-Warblers","881"
"","2161","image-multi-choice","176","852705","0.0-1.0-175.0","{""Q0"":""Lincoln's Sparrow""}","Tennessee Warbler","Wood-Warblers","866"
"","1647","image-multi-choice","177","855365","0.0-1.0-176.0","{""Q0"":""Yellow Warbler""}","Northern Waterthrush","Wood-Warblers","862"
"","3689","image-multi-choice","178","860066","0.0-1.0-177.0","{""Q0"":""Fox Sparrow""}","Swamp Sparrow","New World Sparrows and Allies","904"
"","3233","image-multi-choice","179","864311","0.0-1.0-178.0","{""Q0"":""Northern Waterthrush""}","Fox Sparrow","New World Sparrows and Allies","901"
"","1865","image-multi-choice","180","906275","0.0-1.0-179.0","{""Q0"":""White-throated Sparrow""}","American Tree Sparrow","New World Sparrows and Allies","894"
"","5626","image-multi-choice","181","912912","0.0-1.0-180.0","{""Q0"":""Vesper Sparrow""}","Fox Sparrow","New World Sparrows and Allies","901"
"","3501","image-multi-choice","182","917424","0.0-1.0-181.0","{""Q0"":""Magnolia Warbler""}","Vesper Sparrow","New World Sparrows and Allies","898"
"","2621","image-multi-choice","183","921056","0.0-1.0-182.0","{""Q0"":""Blackburnian Warbler""}","Song Sparrow","New World Sparrows and Allies","902"
"","2747","image-multi-choice","184","924815","0.0-1.0-183.0","{""Q0"":""Black-and-white Warbler""}","Blackburnian Warbler","Wood-Warblers","874"
"","4659","image-multi-choice","185","930487","0.0-1.0-184.0","{""Q0"":""Townsend's Warbler""}","White-crowned Sparrow","New World Sparrows and Allies","766"
"","3731","image-multi-choice","186","935228","0.0-1.0-185.0","{""Q0"":""Lincoln's Sparrow""}","American Tree Sparrow","New World Sparrows and Allies","894"
"","2688","image-multi-choice","187","938927","0.0-1.0-186.0","{""Q0"":""Black-and-white Warbler""}","Black-and-white Warbler","Wood-Warblers","864"
"","4589","image-multi-choice","188","944527","0.0-1.0-187.0","{""Q0"":""Ovenbird""}","Lark Sparrow","New World Sparrows and Allies","899"
"","3793","image-multi-choice","189","949333","0.0-1.0-188.0","{""Q0"":""Yellow Warbler""}","Nashville Warbler","Wood-Warblers","868"
"","3370","image-multi-choice","190","953714","0.0-1.0-189.0","{""Q0"":""Lincoln's Sparrow""}","Northern Waterthrush","Wood-Warblers","862"
"","2185","image-multi-choice","191","956914","0.0-1.0-190.0","{""Q0"":""Song Sparrow""}","Tennessee Warbler","Wood-Warblers","866"
"","2258","image-multi-choice","192","960188","0.0-1.0-191.0","{""Q0"":""Fox Sparrow""}","Nashville Warbler","Wood-Warblers","868"
"","1784","image-multi-choice","193","962983","0.0-1.0-192.0","{""Q0"":""Swamp Sparrow""}","Fox Sparrow","New World Sparrows and Allies","901"
"","1985","image-multi-choice","194","965979","0.0-1.0-193.0","{""Q0"":""Song Sparrow""}","Blackburnian Warbler","Wood-Warblers","874"
"","2932","image-multi-choice","195","969926","0.0-1.0-194.0","{""Q0"":""Northern Waterthrush""}","Swamp Sparrow","New World Sparrows and Allies","904"
"","1783","image-multi-choice","196","972724","0.0-1.0-195.0","{""Q0"":""Lincoln's Sparrow""}","Townsend's Warbler","Wood-Warblers","881"
"","1580","image-multi-choice","197","975315","0.0-1.0-196.0","{""Q0"":""Magnolia Warbler""}","Tennessee Warbler","Wood-Warblers","866"
"","1711","image-multi-choice","198","978037","0.0-1.0-197.0","{""Q0"":""Vesper Sparrow""}","White-crowned Sparrow","New World Sparrows and Allies","766"
"","1500","image-multi-choice","199","980549","0.0-1.0-198.0","{""Q0"":""Song Sparrow""}","Ovenbird","Wood-Warblers","860"
"","1510","image-multi-choice","200","983071","0.0-1.0-199.0","{""Q0"":""Orange-crowned Warbler""}","Vesper Sparrow","New World Sparrows and Allies","898"
"","1143","image-multi-choice","201","985226","0.0-1.0-200.0","{""Q0"":""White-crowned Sparrow""}","Blackburnian Warbler","Wood-Warblers","874"
"","3298","image-multi-choice","202","989537","0.0-1.0-201.0","{""Q0"":""Chipping Sparrow""}","Chipping Sparrow","New World Sparrows and Allies","769"
"","1930","image-multi-choice","203","992482","0.0-1.0-202.0","{""Q0"":""Orange-crowned Warbler""}","Vesper Sparrow","New World Sparrows and Allies","898"
"","1651","image-multi-choice","204","995142","0.0-1.0-203.0","{""Q0"":""Lincoln's Sparrow""}","Yellow Warbler","Wood-Warblers","875"
"","847","image-multi-choice","205","997002","0.0-1.0-204.0","{""Q0"":""Yellow Warbler""}","Orange-crowned Warbler","Wood-Warblers","867"
"","1942","image-multi-choice","206","999956","0.0-1.0-205.0","{""Q0"":""Swamp Sparrow""}","White-throated Sparrow","New World Sparrows and Allies","764"
"","1295","image-multi-choice","207","1002262","0.0-1.0-206.0","{""Q0"":""Vesper Sparrow""}","American Tree Sparrow","New World Sparrows and Allies","894"
"","1630","image-multi-choice","208","1004906","0.0-1.0-207.0","{""Q0"":""Blackburnian Warbler""}","Orange-crowned Warbler","Wood-Warblers","867"
"","4034","image-multi-choice","209","1009953","0.0-1.0-208.0","{""Q0"":""Black-and-white Warbler""}","Black-and-white Warbler","Wood-Warblers","864"
"","3888","image-multi-choice","210","1014853","0.0-1.0-209.0","{""Q0"":""Ovenbird""}","Lark Sparrow","New World Sparrows and Allies","899"
"","2875","image-multi-choice","211","1018739","0.0-1.0-210.0","{""Q0"":""Yellow Warbler""}","Chipping Sparrow","New World Sparrows and Allies","769"
"","2943","image-multi-choice","212","1022695","0.0-1.0-211.0","{""Q0"":""Magnolia Warbler""}","Orange-crowned Warbler","Wood-Warblers","867"
"","2650","image-multi-choice","213","1026361","0.0-1.0-212.0","{""Q0"":""Chipping Sparrow""}","Yellow Warbler","Wood-Warblers","875"
"","2340","image-multi-choice","214","1029718","0.0-1.0-213.0","{""Q0"":""Lark Sparrow""}","American Tree Sparrow","New World Sparrows and Allies","894"
"","2558","image-multi-choice","215","1033287","0.0-1.0-214.0","{""Q0"":""American Tree Sparrow""}","Vesper Sparrow","New World Sparrows and Allies","898"
"","4723","image-multi-choice","216","1039021","0.0-1.0-215.0","{""Q0"":""Nashville Warbler""}","Ovenbird","Wood-Warblers","860"
"","1960","image-multi-choice","217","1041995","0.0-1.0-216.0","{""Q0"":""Vesper Sparrow""}","Lark Sparrow","New World Sparrows and Allies","899"
"","2867","image-multi-choice","218","1045873","0.0-1.0-217.0","{""Q0"":""Townsend's Warbler""}","Lincoln's Sparrow","New World Sparrows and Allies","903"
"","3086","image-multi-choice","219","1049970","0.0-1.0-218.0","{""Q0"":""Vesper Sparrow""}","Chipping Sparrow","New World Sparrows and Allies","769"
"","2049","image-multi-choice","220","1053029","0.0-1.0-219.0","{""Q0"":""Lark Sparrow""}","Lincoln's Sparrow","New World Sparrows and Allies","903"
"","1959","image-multi-choice","221","1056001","0.0-1.0-220.0","{""Q0"":""Magnolia Warbler""}","Northern Waterthrush","Wood-Warblers","862"
"","1400","image-multi-choice","222","1058414","0.0-1.0-221.0","{""Q0"":""Vesper Sparrow""}","Chipping Sparrow","New World Sparrows and Allies","769"
"","5457","image-multi-choice","223","1064883","0.0-1.0-222.0","{""Q0"":""Lark Sparrow""}","Lincoln's Sparrow","New World Sparrows and Allies","903"
"","2167","image-multi-choice","224","1068061","0.0-1.0-223.0","{""Q0"":""Lark Sparrow""}","Blackburnian Warbler","Wood-Warblers","874"
"","1146","image-multi-choice","225","1070221","0.0-1.0-224.0","{""Q0"":""Townsend's Warbler""}","Swamp Sparrow","New World Sparrows and Allies","904"
"","1043","image-multi-choice","226","1072275","0.0-1.0-225.0","{""Q0"":""Tennessee Warbler""}","American Tree Sparrow","New World Sparrows and Allies","894"
"","1175","image-multi-choice","227","1074464","0.0-1.0-226.0","{""Q0"":""Nashville Warbler""}","Fox Sparrow","New World Sparrows and Allies","901"
"","1645","image-multi-choice","228","1077121","0.0-1.0-227.0","{""Q0"":""Song Sparrow""}","Northern Waterthrush","Wood-Warblers","862"
"","1544","image-multi-choice","229","1079680","0.0-1.0-228.0","{""Q0"":""Chipping Sparrow""}","Nashville Warbler","Wood-Warblers","868"
"","1828","image-multi-choice","230","1082521","0.0-1.0-229.0","{""Q0"":""Swamp Sparrow""}","Black-and-white Warbler","Wood-Warblers","864"
"","1326","image-multi-choice","231","1084857","0.0-1.0-230.0","{""Q0"":""White-crowned Sparrow""}","Tennessee Warbler","Wood-Warblers","866"
"","1300","image-multi-choice","232","1087169","0.0-1.0-231.0","{""Q0"":""Swamp Sparrow""}","Townsend's Warbler","Wood-Warblers","881"
"","906","image-multi-choice","233","1089089","0.0-1.0-232.0","{""Q0"":""Northern Waterthrush""}","Magnolia Warbler","Wood-Warblers","758"
"","1669","image-multi-choice","234","1091769","0.0-1.0-233.0","{""Q0"":""Lincoln's Sparrow""}","Northern Waterthrush","Wood-Warblers","862"
"","1853","image-multi-choice","235","1094632","0.0-1.0-234.0","{""Q0"":""Chipping Sparrow""}","Orange-crowned Warbler","Wood-Warblers","867"
"","1587","image-multi-choice","236","1097232","0.0-1.0-235.0","{""Q0"":""Yellow Warbler""}","White-throated Sparrow","New World Sparrows and Allies","764"
"","1037","image-multi-choice","237","1099280","0.0-1.0-236.0","{""Q0"":""Vesper Sparrow""}","Yellow Warbler","Wood-Warblers","875"
"","2172","image-multi-choice","238","1102464","0.0-1.0-237.0","{""Q0"":""Fox Sparrow""}","Fox Sparrow","New World Sparrows and Allies","901"
"","1168","image-multi-choice","239","1104641","0.0-1.0-238.0","{""Q0"":""Tennessee Warbler""}","Swamp Sparrow","New World Sparrows and Allies","904"
"","1378","image-multi-choice","240","1111770","0.0-1.0-239.0","{""Q0"":""Northern Waterthrush""}","Fox Sparrow","New World Sparrows and Allies","901"
"","764","image-multi-choice","241","1113544","0.0-1.0-240.0","{""Q0"":""Song Sparrow""}","Orange-crowned Warbler","Wood-Warblers","867"
"","661","image-multi-choice","242","1115216","0.0-1.0-241.0","{""Q0"":""Fox Sparrow""}","White-crowned Sparrow","New World Sparrows and Allies","766"
"","1686","image-multi-choice","243","1117912","0.0-1.0-242.0","{""Q0"":""Townsend's Warbler""}","White-throated Sparrow","New World Sparrows and Allies","764"
"","1463","image-multi-choice","244","1120383","0.0-1.0-243.0","{""Q0"":""Chipping Sparrow""}","Song Sparrow","New World Sparrows and Allies","902"
"","948","image-multi-choice","245","1122343","0.0-1.0-244.0","{""Q0"":""Lincoln's Sparrow""}","Lark Sparrow","New World Sparrows and Allies","899"
"","1357","image-multi-choice","246","1124712","0.0-1.0-245.0","{""Q0"":""American Tree Sparrow""}","Vesper Sparrow","New World Sparrows and Allies","898"
"","676","image-multi-choice","247","1126399","0.0-1.0-246.0","{""Q0"":""Orange-crowned Warbler""}","Lark Sparrow","New World Sparrows and Allies","899"
"","646","image-multi-choice","248","1128055","0.0-1.0-247.0","{""Q0"":""Fox Sparrow""}","American Tree Sparrow","New World Sparrows and Allies","894"
"","2371","image-multi-choice","249","1131439","0.0-1.0-248.0","{""Q0"":""Northern Waterthrush""}","Black-and-white Warbler","Wood-Warblers","864"
"","3701","image-multi-choice","250","1136151","0.0-1.0-249.0","{""Q0"":""Tennessee Warbler""}","Lark Sparrow","New World Sparrows and Allies","899"
"","1124","image-multi-choice","251","1138287","0.0-1.0-250.0","{""Q0"":""White-crowned Sparrow""}","Orange-crowned Warbler","Wood-Warblers","867"
"","970","image-multi-choice","252","1140270","0.0-1.0-251.0","{""Q0"":""Tennessee Warbler""}","Blackburnian Warbler","Wood-Warblers","874"
"","886","image-multi-choice","253","1142167","0.0-1.0-252.0","{""Q0"":""Chipping Sparrow""}","Vesper Sparrow","New World Sparrows and Allies","898"
"","604","image-multi-choice","254","1143782","0.0-1.0-253.0","{""Q0"":""Magnolia Warbler""}","Townsend's Warbler","Wood-Warblers","881"
"","477","image-multi-choice","255","1145271","0.0-1.0-254.0","{""Q0"":""Orange-crowned Warbler""}","Swamp Sparrow","New World Sparrows and Allies","904"
"","445","image-multi-choice","256","1146726","0.0-1.0-255.0","{""Q0"":""White-throated Sparrow""}","Song Sparrow","New World Sparrows and Allies","902"
"","509","image-multi-choice","257","1148246","0.0-1.0-256.0","{""Q0"":""Vesper Sparrow""}","Swamp Sparrow","New World Sparrows and Allies","904"
"","601","image-multi-choice","258","1149863","0.0-1.0-257.0","{""Q0"":""Townsend's Warbler""}","Ovenbird","Wood-Warblers","860"
"","504","image-multi-choice","259","1151382","0.0-1.0-258.0","{""Q0"":""Vesper Sparrow""}","Black-and-white Warbler","Wood-Warblers","864"
"","686","image-multi-choice","260","1153078","0.0-1.0-259.0","{""Q0"":""Ovenbird""}","American Tree Sparrow","New World Sparrows and Allies","894"
"","595","image-multi-choice","261","1154686","0.0-1.0-260.0","{""Q0"":""Chipping Sparrow""}","Yellow Warbler","Wood-Warblers","875"
"","424","image-multi-choice","262","1156126","0.0-1.0-261.0","{""Q0"":""Lincoln's Sparrow""}","Vesper Sparrow","New World Sparrows and Allies","898"
"","725","image-multi-choice","263","1157862","0.0-1.0-262.0","{""Q0"":""Orange-crowned Warbler""}","Chipping Sparrow","New World Sparrows and Allies","769"
"","784","image-multi-choice","264","1159662","0.0-1.0-263.0","{""Q0"":""Lark Sparrow""}","Northern Waterthrush","Wood-Warblers","862"
"","504","image-multi-choice","265","1161182","0.0-1.0-264.0","{""Q0"":""Chipping Sparrow""}","Song Sparrow","New World Sparrows and Allies","902"
"","589","image-multi-choice","266","1162782","0.0-1.0-265.0","{""Q0"":""Lark Sparrow""}","Nashville Warbler","Wood-Warblers","868"
"","469","image-multi-choice","267","1164262","0.0-1.0-266.0","{""Q0"":""Magnolia Warbler""}","White-throated Sparrow","New World Sparrows and Allies","764"
"","338","image-multi-choice","268","1165614","0.0-1.0-267.0","{""Q0"":""Northern Waterthrush""}","White-crowned Sparrow","New World Sparrows and Allies","766"
"","348","image-multi-choice","269","1166974","0.0-1.0-268.0","{""Q0"":""Song Sparrow""}","American Tree Sparrow","New World Sparrows and Allies","894"
"","314","image-multi-choice","270","1168301","0.0-1.0-269.0","{""Q0"":""Townsend's Warbler""}","White-throated Sparrow","New World Sparrows and Allies","764"
"","582","image-multi-choice","271","1169893","0.0-1.0-270.0","{""Q0"":""Yellow Warbler""}","White-crowned Sparrow","New World Sparrows and Allies","766"
"","2433","image-multi-choice","272","1173341","0.0-1.0-271.0","{""Q0"":""Ovenbird""}","Yellow Warbler","Wood-Warblers","875"
"","774","image-multi-choice","273","1175126","0.0-1.0-272.0","{""Q0"":""Northern Waterthrush""}","Chipping Sparrow","New World Sparrows and Allies","769"
"","3685","image-multi-choice","274","1179822","0.0-1.0-273.0","{""Q0"":""Townsend's Warbler""}","Ovenbird","Wood-Warblers","860"
"","747","image-multi-choice","275","1181581","0.0-1.0-274.0","{""Q0"":""Magnolia Warbler""}","Northern Waterthrush","Wood-Warblers","862"
"","580","image-multi-choice","276","1183173","0.0-1.0-275.0","{""Q0"":""Orange-crowned Warbler""}","Ovenbird","Wood-Warblers","860"
"","1917","image-multi-choice","277","1186102","0.0-1.0-276.0","{""Q0"":""Nashville Warbler""}","Black-and-white Warbler","Wood-Warblers","864"
"","1966","image-multi-choice","278","1189085","0.0-1.0-277.0","{""Q0"":""White-crowned Sparrow""}","Chipping Sparrow","New World Sparrows and Allies","769"
"","769","image-multi-choice","279","1190868","0.0-1.0-278.0","{""Q0"":""Lincoln's Sparrow""}","Fox Sparrow","New World Sparrows and Allies","901"
"","509","image-multi-choice","280","1192388","0.0-1.0-279.0","{""Q0"":""Orange-crowned Warbler""}","Magnolia Warbler","Wood-Warblers","758"
"","619","image-multi-choice","281","1194020","0.0-1.0-280.0","{""Q0"":""Townsend's Warbler""}","White-crowned Sparrow","New World Sparrows and Allies","766"
"","453","image-multi-choice","282","1195484","0.0-1.0-281.0","{""Q0"":""White-throated Sparrow""}","White-throated Sparrow","New World Sparrows and Allies","764"
"","579","image-multi-choice","283","1197076","0.0-1.0-282.0","{""Q0"":""Black-and-white Warbler""}","Swamp Sparrow","New World Sparrows and Allies","904"
"","435","image-multi-choice","284","1198524","0.0-1.0-283.0","{""Q0"":""Fox Sparrow""}","Magnolia Warbler","Wood-Warblers","758"
"","708","image-multi-choice","285","1200244","0.0-1.0-284.0","{""Q0"":""Lincoln's Sparrow""}","Orange-crowned Warbler","Wood-Warblers","867"
"","3234","image-multi-choice","286","1204492","0.0-1.0-285.0","{""Q0"":""Black-and-white Warbler""}","Magnolia Warbler","Wood-Warblers","758"
"","939","image-multi-choice","287","1206445","0.0-1.0-286.0","{""Q0"":""Fox Sparrow""}","Vesper Sparrow","New World Sparrows and Allies","898"
"","1227","image-multi-choice","288","1208684","0.0-1.0-287.0","{""Q0"":""Song Sparrow""}","Northern Waterthrush","Wood-Warblers","862"
"","643","image-multi-choice","289","1210340","0.0-1.0-288.0","{""Q0"":""Townsend's Warbler""}","Blackburnian Warbler","Wood-Warblers","874"
"","621","image-multi-choice","290","1211972","0.0-1.0-289.0","{""Q0"":""Swamp Sparrow""}","Tennessee Warbler","Wood-Warblers","866"
"","668","image-multi-choice","291","1213650","0.0-1.0-290.0","{""Q0"":""Townsend's Warbler""}","Lark Sparrow","New World Sparrows and Allies","899"
"","338","image-multi-choice","292","1215003","0.0-1.0-291.0","{""Q0"":""Orange-crowned Warbler""}","Black-and-white Warbler","Wood-Warblers","864"
"","1029","image-multi-choice","293","1217044","0.0-1.0-292.0","{""Q0"":""Yellow Warbler""}","Lincoln's Sparrow","New World Sparrows and Allies","903"
"","371","image-multi-choice","294","1218428","0.0-1.0-293.0","{""Q0"":""White-crowned Sparrow""}","Tennessee Warbler","Wood-Warblers","866"
"","534","image-multi-choice","295","1219971","0.0-1.0-294.0","{""Q0"":""Orange-crowned Warbler""}","Ovenbird","Wood-Warblers","860"
"","1723","image-multi-choice","296","1222707","0.0-1.0-295.0","{""Q0"":""Lark Sparrow""}","Vesper Sparrow","New World Sparrows and Allies","898"
"","782","image-multi-choice","297","1224498","0.0-1.0-296.0","{""Q0"":""White-crowned Sparrow""}","Northern Waterthrush","Wood-Warblers","862"
"","503","image-multi-choice","298","1226011","0.0-1.0-297.0","{""Q0"":""Fox Sparrow""}","Chipping Sparrow","New World Sparrows and Allies","769"
"","1557","image-multi-choice","299","1228579","0.0-1.0-298.0","{""Q0"":""Nashville Warbler""}","Lark Sparrow","New World Sparrows and Allies","899"
"","936","image-multi-choice","300","1234925","0.0-1.0-299.0","{""Q0"":""Swamp Sparrow""}","Yellow Warbler","Wood-Warblers","875"
"[{""page_index"":0,""viewing_time"":1560}]","1560","instructions","301","1237488","0.0-2.0","","","",""
