"view_history","rt","trial_type","trial_index","time_elapsed","internal_node_id","responses","bird","family","class"
"[{""page_index"":0,""viewing_time"":26154}]","26156","instructions","0","26159","0.0-0.0","","","",""
"","11372","image-multi-choice","1","38579","0.0-1.0-0.0","{""Q0"":""American Tree Sparrow""}","American Tree Sparrow","New World Sparrows and Allies","894"
"","8568","image-multi-choice","2","48177","0.0-1.0-1.0","{""Q0"":""Nashville Warbler""}","Tennessee Warbler","Wood-Warblers","866"
"","6708","image-multi-choice","3","55906","0.0-1.0-2.0","{""Q0"":""Lark Sparrow""}","White-crowned Sparrow","New World Sparrows and Allies","766"
"","10057","image-multi-choice","4","66994","0.0-1.0-3.0","{""Q0"":""Swamp Sparrow""}","American Tree Sparrow","New World Sparrows and Allies","894"
"","6250","image-multi-choice","5","74277","0.0-1.0-4.0","{""Q0"":""White-crowned Sparrow""}","White-crowned Sparrow","New World Sparrows and Allies","766"
"","7842","image-multi-choice","6","83148","0.0-1.0-5.0","{""Q0"":""Blackburnian Warbler""}","Townsend's Warbler","Wood-Warblers","881"
"","6261","image-multi-choice","7","90438","0.0-1.0-6.0","{""Q0"":""Song Sparrow""}","Vesper Sparrow","New World Sparrows and Allies","898"
"","5954","image-multi-choice","8","97428","0.0-1.0-7.0","{""Q0"":""Yellow Warbler""}","Nashville Warbler","Wood-Warblers","868"
"","8558","image-multi-choice","9","107013","0.0-1.0-8.0","{""Q0"":""Lincoln's Sparrow""}","Northern Waterthrush","Wood-Warblers","862"
"","11351","image-multi-choice","10","119391","0.0-1.0-9.0","{""Q0"":""Northern Waterthrush""}","Ovenbird","Wood-Warblers","860"
"","5513","image-multi-choice","11","125932","0.0-1.0-10.0","{""Q0"":""Song Sparrow""}","Lincoln's Sparrow","New World Sparrows and Allies","903"
"","5449","image-multi-choice","12","132411","0.0-1.0-11.0","{""Q0"":""Blackburnian Warbler""}","Townsend's Warbler","Wood-Warblers","881"
"","9393","image-multi-choice","13","142836","0.0-1.0-12.0","{""Q0"":""Ovenbird""}","Fox Sparrow","New World Sparrows and Allies","901"
"","6740","image-multi-choice","14","150603","0.0-1.0-13.0","{""Q0"":""Swamp Sparrow""}","Blackburnian Warbler","Wood-Warblers","874"
"","6728","image-multi-choice","15","158356","0.0-1.0-14.0","{""Q0"":""Lark Sparrow""}","Vesper Sparrow","New World Sparrows and Allies","898"
"","8659","image-multi-choice","16","168042","0.0-1.0-15.0","{""Q0"":""Tennessee Warbler""}","Black-and-white Warbler","Wood-Warblers","864"
"","6237","image-multi-choice","17","175310","0.0-1.0-16.0","{""Q0"":""Orange-crowned Warbler""}","Nashville Warbler","Wood-Warblers","868"
"","7415","image-multi-choice","18","183779","0.0-1.0-17.0","{""Q0"":""Chipping Sparrow""}","Lincoln's Sparrow","New World Sparrows and Allies","903"
"","7454","image-multi-choice","19","192262","0.0-1.0-18.0","{""Q0"":""Yellow Warbler""}","Nashville Warbler","Wood-Warblers","868"
"","5212","image-multi-choice","20","198504","0.0-1.0-19.0","{""Q0"":""Lark Sparrow""}","Lark Sparrow","New World Sparrows and Allies","899"
"","7968","image-multi-choice","21","207499","0.0-1.0-20.0","{""Q0"":""Magnolia Warbler""}","Magnolia Warbler","Wood-Warblers","758"
"","3930","image-multi-choice","22","212459","0.0-1.0-21.0","{""Q0"":""Townsend's Warbler""}","Townsend's Warbler","Wood-Warblers","881"
"","9726","image-multi-choice","23","223211","0.0-1.0-22.0","{""Q0"":""Lark Sparrow""}","Swamp Sparrow","New World Sparrows and Allies","904"
"","9450","image-multi-choice","24","233675","0.0-1.0-23.0","{""Q0"":""Yellow Warbler""}","Tennessee Warbler","Wood-Warblers","866"
"","5760","image-multi-choice","25","240459","0.0-1.0-24.0","{""Q0"":""Fox Sparrow""}","Ovenbird","Wood-Warblers","860"
"","5606","image-multi-choice","26","247100","0.0-1.0-25.0","{""Q0"":""White-crowned Sparrow""}","White-crowned Sparrow","New World Sparrows and Allies","766"
"","11393","image-multi-choice","27","259522","0.0-1.0-26.0","{""Q0"":""Swamp Sparrow""}","Vesper Sparrow","New World Sparrows and Allies","898"
"","7024","image-multi-choice","28","267571","0.0-1.0-27.0","{""Q0"":""Yellow Warbler""}","Orange-crowned Warbler","Wood-Warblers","867"
"","4885","image-multi-choice","29","273483","0.0-1.0-28.0","{""Q0"":""Chipping Sparrow""}","American Tree Sparrow","New World Sparrows and Allies","894"
"","6213","image-multi-choice","30","280722","0.0-1.0-29.0","{""Q0"":""Yellow Warbler""}","Tennessee Warbler","Wood-Warblers","866"
"","12415","image-multi-choice","31","294160","0.0-1.0-30.0","{""Q0"":""Blackburnian Warbler""}","Magnolia Warbler","Wood-Warblers","758"
"","8224","image-multi-choice","32","303411","0.0-1.0-31.0","{""Q0"":""Nashville Warbler""}","Blackburnian Warbler","Wood-Warblers","874"
"","6285","image-multi-choice","33","310728","0.0-1.0-32.0","{""Q0"":""Tennessee Warbler""}","Tennessee Warbler","Wood-Warblers","866"
"","4849","image-multi-choice","34","316612","0.0-1.0-33.0","{""Q0"":""Northern Waterthrush""}","Vesper Sparrow","New World Sparrows and Allies","898"
"","15606","image-multi-choice","35","333380","0.0-1.0-34.0","{""Q0"":""Yellow Warbler""}","Orange-crowned Warbler","Wood-Warblers","867"
"","5558","image-multi-choice","36","339963","0.0-1.0-35.0","{""Q0"":""White-crowned Sparrow""}","White-crowned Sparrow","New World Sparrows and Allies","766"
"","5262","image-multi-choice","37","346250","0.0-1.0-36.0","{""Q0"":""Fox Sparrow""}","Fox Sparrow","New World Sparrows and Allies","901"
"","4817","image-multi-choice","38","352086","0.0-1.0-37.0","{""Q0"":""Lark Sparrow""}","Swamp Sparrow","New World Sparrows and Allies","904"
"","3937","image-multi-choice","39","357051","0.0-1.0-38.0","{""Q0"":""Yellow Warbler""}","Yellow Warbler","Wood-Warblers","875"
"","6767","image-multi-choice","40","364850","0.0-1.0-39.0","{""Q0"":""Black-and-white Warbler""}","Black-and-white Warbler","Wood-Warblers","864"
"","7814","image-multi-choice","41","373689","0.0-1.0-40.0","{""Q0"":""Lark Sparrow""}","Fox Sparrow","New World Sparrows and Allies","901"
"","7686","image-multi-choice","42","382403","0.0-1.0-41.0","{""Q0"":""Magnolia Warbler""}","Northern Waterthrush","Wood-Warblers","862"
"","6949","image-multi-choice","43","390379","0.0-1.0-42.0","{""Q0"":""Orange-crowned Warbler""}","Nashville Warbler","Wood-Warblers","868"
"","3985","image-multi-choice","44","395395","0.0-1.0-43.0","{""Q0"":""Blackburnian Warbler""}","Blackburnian Warbler","Wood-Warblers","874"
"","5391","image-multi-choice","45","401812","0.0-1.0-44.0","{""Q0"":""Tennessee Warbler""}","Orange-crowned Warbler","Wood-Warblers","867"
"","7970","image-multi-choice","46","410814","0.0-1.0-45.0","{""Q0"":""American Tree Sparrow""}","Blackburnian Warbler","Wood-Warblers","874"
"","4558","image-multi-choice","47","416402","0.0-1.0-46.0","{""Q0"":""Tennessee Warbler""}","Nashville Warbler","Wood-Warblers","868"
"","5403","image-multi-choice","48","422829","0.0-1.0-47.0","{""Q0"":""Fox Sparrow""}","Northern Waterthrush","Wood-Warblers","862"
"","5725","image-multi-choice","49","429578","0.0-1.0-48.0","{""Q0"":""Fox Sparrow""}","Fox Sparrow","New World Sparrows and Allies","901"
"","6340","image-multi-choice","50","436947","0.0-1.0-49.0","{""Q0"":""Northern Waterthrush""}","Swamp Sparrow","New World Sparrows and Allies","904"
"","6221","image-multi-choice","51","444194","0.0-1.0-50.0","{""Q0"":""Tennessee Warbler""}","Nashville Warbler","Wood-Warblers","868"
"","4930","image-multi-choice","52","450154","0.0-1.0-51.0","{""Q0"":""Townsend's Warbler""}","Black-and-white Warbler","Wood-Warblers","864"
"","5424","image-multi-choice","53","456603","0.0-1.0-52.0","{""Q0"":""Chipping Sparrow""}","American Tree Sparrow","New World Sparrows and Allies","894"
"","6099","image-multi-choice","54","463726","0.0-1.0-53.0","{""Q0"":""Nashville Warbler""}","Black-and-white Warbler","Wood-Warblers","864"
"","12041","image-multi-choice","55","476795","0.0-1.0-54.0","{""Q0"":""Magnolia Warbler""}","Townsend's Warbler","Wood-Warblers","881"
"","5445","image-multi-choice","56","483275","0.0-1.0-55.0","{""Q0"":""Lark Sparrow""}","Lark Sparrow","New World Sparrows and Allies","899"
"","5939","image-multi-choice","57","490242","0.0-1.0-56.0","{""Q0"":""Fox Sparrow""}","Ovenbird","Wood-Warblers","860"
"","6034","image-multi-choice","58","497300","0.0-1.0-57.0","{""Q0"":""Lark Sparrow""}","Song Sparrow","New World Sparrows and Allies","902"
"","8886","image-multi-choice","59","507213","0.0-1.0-58.0","{""Q0"":""Magnolia Warbler""}","Chipping Sparrow","New World Sparrows and Allies","769"
"","6438","image-multi-choice","60","589719","0.0-1.0-59.0","{""Q0"":""Blackburnian Warbler""}","Black-and-white Warbler","Wood-Warblers","864"
"","8543","image-multi-choice","61","599323","0.0-1.0-60.0","{""Q0"":""Chipping Sparrow""}","Chipping Sparrow","New World Sparrows and Allies","769"
"","12723","image-multi-choice","62","613077","0.0-1.0-61.0","{""Q0"":""Swamp Sparrow""}","Swamp Sparrow","New World Sparrows and Allies","904"
"","8516","image-multi-choice","63","622619","0.0-1.0-62.0","{""Q0"":""Tennessee Warbler""}","Nashville Warbler","Wood-Warblers","868"
"","5538","image-multi-choice","64","629187","0.0-1.0-63.0","{""Q0"":""American Tree Sparrow""}","Lincoln's Sparrow","New World Sparrows and Allies","903"
"","9409","image-multi-choice","65","639626","0.0-1.0-64.0","{""Q0"":""Black-and-white Warbler""}","Black-and-white Warbler","Wood-Warblers","864"
"","4904","image-multi-choice","66","645560","0.0-1.0-65.0","{""Q0"":""Fox Sparrow""}","Fox Sparrow","New World Sparrows and Allies","901"
"","11253","image-multi-choice","67","657835","0.0-1.0-66.0","{""Q0"":""Magnolia Warbler""}","Townsend's Warbler","Wood-Warblers","881"
"","3622","image-multi-choice","68","662482","0.0-1.0-67.0","{""Q0"":""Yellow Warbler""}","Yellow Warbler","Wood-Warblers","875"
"","5220","image-multi-choice","69","668731","0.0-1.0-68.0","{""Q0"":""Nashville Warbler""}","Tennessee Warbler","Wood-Warblers","866"
"","4334","image-multi-choice","70","674091","0.0-1.0-69.0","{""Q0"":""Fox Sparrow""}","Ovenbird","Wood-Warblers","860"
"","9618","image-multi-choice","71","684725","0.0-1.0-70.0","{""Q0"":""Lincoln's Sparrow""}","Townsend's Warbler","Wood-Warblers","881"
"","11822","image-multi-choice","72","697571","0.0-1.0-71.0","{""Q0"":""Magnolia Warbler""}","Black-and-white Warbler","Wood-Warblers","864"
"","8111","image-multi-choice","73","706714","0.0-1.0-72.0","{""Q0"":""Blackburnian Warbler""}","Song Sparrow","New World Sparrows and Allies","902"
"","9054","image-multi-choice","74","716795","0.0-1.0-73.0","{""Q0"":""Fox Sparrow""}","Northern Waterthrush","Wood-Warblers","862"
"","8056","image-multi-choice","75","725882","0.0-1.0-74.0","{""Q0"":""Song Sparrow""}","Swamp Sparrow","New World Sparrows and Allies","904"
"","6667","image-multi-choice","76","733584","0.0-1.0-75.0","{""Q0"":""Lark Sparrow""}","White-crowned Sparrow","New World Sparrows and Allies","766"
"","5159","image-multi-choice","77","739771","0.0-1.0-76.0","{""Q0"":""White-crowned Sparrow""}","White-throated Sparrow","New World Sparrows and Allies","764"
"","5928","image-multi-choice","78","746746","0.0-1.0-77.0","{""Q0"":""Nashville Warbler""}","Townsend's Warbler","Wood-Warblers","881"
"","8495","image-multi-choice","79","756267","0.0-1.0-78.0","{""Q0"":""Lincoln's Sparrow""}","Vesper Sparrow","New World Sparrows and Allies","898"
"","10104","image-multi-choice","80","767397","0.0-1.0-79.0","{""Q0"":""Swamp Sparrow""}","White-throated Sparrow","New World Sparrows and Allies","764"
"","6737","image-multi-choice","81","775161","0.0-1.0-80.0","{""Q0"":""Fox Sparrow""}","Northern Waterthrush","Wood-Warblers","862"
"","3144","image-multi-choice","82","779331","0.0-1.0-81.0","{""Q0"":""Yellow Warbler""}","Yellow Warbler","Wood-Warblers","875"
"","7286","image-multi-choice","83","787651","0.0-1.0-82.0","{""Q0"":""Orange-crowned Warbler""}","Nashville Warbler","Wood-Warblers","868"
"","6078","image-multi-choice","84","794755","0.0-1.0-83.0","{""Q0"":""Lark Sparrow""}","Lark Sparrow","New World Sparrows and Allies","899"
"","3089","image-multi-choice","85","798859","0.0-1.0-84.0","{""Q0"":""Yellow Warbler""}","Orange-crowned Warbler","Wood-Warblers","867"
"","9326","image-multi-choice","86","809211","0.0-1.0-85.0","{""Q0"":""Tennessee Warbler""}","Nashville Warbler","Wood-Warblers","868"
"","6286","image-multi-choice","87","816522","0.0-1.0-86.0","{""Q0"":""Black-and-white Warbler""}","Black-and-white Warbler","Wood-Warblers","864"
"","4942","image-multi-choice","88","822491","0.0-1.0-87.0","{""Q0"":""Yellow Warbler""}","Nashville Warbler","Wood-Warblers","868"
"","4486","image-multi-choice","89","828003","0.0-1.0-88.0","{""Q0"":""Fox Sparrow""}","Ovenbird","Wood-Warblers","860"
"","7151","image-multi-choice","90","836179","0.0-1.0-89.0","{""Q0"":""Blackburnian Warbler""}","Black-and-white Warbler","Wood-Warblers","864"
"","5957","image-multi-choice","91","843163","0.0-1.0-90.0","{""Q0"":""Lark Sparrow""}","Chipping Sparrow","New World Sparrows and Allies","769"
"","3566","image-multi-choice","92","847955","0.0-1.0-91.0","{""Q0"":""Ovenbird""}","Tennessee Warbler","Wood-Warblers","866"
"","5534","image-multi-choice","93","854532","0.0-1.0-92.0","{""Q0"":""White-crowned Sparrow""}","White-throated Sparrow","New World Sparrows and Allies","764"
"","4255","image-multi-choice","94","859812","0.0-1.0-93.0","{""Q0"":""Fox Sparrow""}","Song Sparrow","New World Sparrows and Allies","902"
"","6828","image-multi-choice","95","867684","0.0-1.0-94.0","{""Q0"":""Magnolia Warbler""}","Blackburnian Warbler","Wood-Warblers","874"
"","5205","image-multi-choice","96","873916","0.0-1.0-95.0","{""Q0"":""Chipping Sparrow""}","American Tree Sparrow","New World Sparrows and Allies","894"
"","5070","image-multi-choice","97","880011","0.0-1.0-96.0","{""Q0"":""White-crowned Sparrow""}","White-throated Sparrow","New World Sparrows and Allies","764"
"","4630","image-multi-choice","98","885667","0.0-1.0-97.0","{""Q0"":""Orange-crowned Warbler""}","Orange-crowned Warbler","Wood-Warblers","867"
"","3509","image-multi-choice","99","890202","0.0-1.0-98.0","{""Q0"":""Yellow Warbler""}","Yellow Warbler","Wood-Warblers","875"
"","3282","image-multi-choice","100","894514","0.0-1.0-99.0","{""Q0"":""Fox Sparrow""}","Fox Sparrow","New World Sparrows and Allies","901"
"","4327","image-multi-choice","101","899868","0.0-1.0-100.0","{""Q0"":""Townsend's Warbler""}","Chipping Sparrow","New World Sparrows and Allies","769"
"","4142","image-multi-choice","102","905035","0.0-1.0-101.0","{""Q0"":""Fox Sparrow""}","Northern Waterthrush","Wood-Warblers","862"
"","6805","image-multi-choice","103","912866","0.0-1.0-102.0","{""Q0"":""Lark Sparrow""}","Swamp Sparrow","New World Sparrows and Allies","904"
"","4364","image-multi-choice","104","918252","0.0-1.0-103.0","{""Q0"":""Fox Sparrow""}","Northern Waterthrush","Wood-Warblers","862"
"","3231","image-multi-choice","105","922507","0.0-1.0-104.0","{""Q0"":""Yellow Warbler""}","Yellow Warbler","Wood-Warblers","875"
"","6529","image-multi-choice","106","930064","0.0-1.0-105.0","{""Q0"":""Nashville Warbler""}","Magnolia Warbler","Wood-Warblers","758"
"","10161","image-multi-choice","107","941251","0.0-1.0-106.0","{""Q0"":""Black-and-white Warbler""}","Townsend's Warbler","Wood-Warblers","881"
"","6589","image-multi-choice","108","948865","0.0-1.0-107.0","{""Q0"":""Lark Sparrow""}","Swamp Sparrow","New World Sparrows and Allies","904"
"","3412","image-multi-choice","109","953292","0.0-1.0-108.0","{""Q0"":""Fox Sparrow""}","Fox Sparrow","New World Sparrows and Allies","901"
"","3558","image-multi-choice","110","957875","0.0-1.0-109.0","{""Q0"":""Yellow Warbler""}","Yellow Warbler","Wood-Warblers","875"
"","9991","image-multi-choice","111","968891","0.0-1.0-110.0","{""Q0"":""Vesper Sparrow""}","Lincoln's Sparrow","New World Sparrows and Allies","903"
"","8631","image-multi-choice","112","978548","0.0-1.0-111.0","{""Q0"":""Magnolia Warbler""}","Townsend's Warbler","Wood-Warblers","881"
"","5374","image-multi-choice","113","984947","0.0-1.0-112.0","{""Q0"":""White-crowned Sparrow""}","White-crowned Sparrow","New World Sparrows and Allies","766"
"","6148","image-multi-choice","114","992120","0.0-1.0-113.0","{""Q0"":""Black-and-white Warbler""}","Blackburnian Warbler","Wood-Warblers","874"
"","10095","image-multi-choice","115","1003236","0.0-1.0-114.0","{""Q0"":""Orange-crowned Warbler""}","Nashville Warbler","Wood-Warblers","868"
"","4380","image-multi-choice","116","1008642","0.0-1.0-115.0","{""Q0"":""Orange-crowned Warbler""}","Tennessee Warbler","Wood-Warblers","866"
"","4366","image-multi-choice","117","1014033","0.0-1.0-116.0","{""Q0"":""Lark Sparrow""}","Vesper Sparrow","New World Sparrows and Allies","898"
"","7046","image-multi-choice","118","1022104","0.0-1.0-117.0","{""Q0"":""Ovenbird""}","Swamp Sparrow","New World Sparrows and Allies","904"
"","4787","image-multi-choice","119","1027906","0.0-1.0-118.0","{""Q0"":""White-crowned Sparrow""}","White-crowned Sparrow","New World Sparrows and Allies","766"
"","7278","image-multi-choice","120","1422530","0.0-1.0-119.0","{""Q0"":""Black-and-white Warbler""}","Blackburnian Warbler","Wood-Warblers","874"
"","10163","image-multi-choice","121","1433724","0.0-1.0-120.0","{""Q0"":""Swamp Sparrow""}","Fox Sparrow","New World Sparrows and Allies","901"
"","6702","image-multi-choice","122","1441453","0.0-1.0-121.0","{""Q0"":""Lincoln's Sparrow""}","Vesper Sparrow","New World Sparrows and Allies","898"
"","5515","image-multi-choice","123","1448003","0.0-1.0-122.0","{""Q0"":""Yellow Warbler""}","Yellow Warbler","Wood-Warblers","875"
"","5585","image-multi-choice","124","1454658","0.0-1.0-123.0","{""Q0"":""Song Sparrow""}","Song Sparrow","New World Sparrows and Allies","902"
"","15654","image-multi-choice","125","1471354","0.0-1.0-124.0","{""Q0"":""Tennessee Warbler""}","Townsend's Warbler","Wood-Warblers","881"
"","12174","image-multi-choice","126","1484555","0.0-1.0-125.0","{""Q0"":""Chipping Sparrow""}","White-crowned Sparrow","New World Sparrows and Allies","766"
"","10872","image-multi-choice","127","1496452","0.0-1.0-126.0","{""Q0"":""Vesper Sparrow""}","Song Sparrow","New World Sparrows and Allies","902"
"","8557","image-multi-choice","128","1506037","0.0-1.0-127.0","{""Q0"":""Lincoln's Sparrow""}","Ovenbird","Wood-Warblers","860"
"","5060","image-multi-choice","129","1512123","0.0-1.0-128.0","{""Q0"":""Black-and-white Warbler""}","Magnolia Warbler","Wood-Warblers","758"
"","6318","image-multi-choice","130","1519466","0.0-1.0-129.0","{""Q0"":""Song Sparrow""}","Swamp Sparrow","New World Sparrows and Allies","904"
"","9545","image-multi-choice","131","1530043","0.0-1.0-130.0","{""Q0"":""Ovenbird""}","Lark Sparrow","New World Sparrows and Allies","899"
"","5956","image-multi-choice","132","1537027","0.0-1.0-131.0","{""Q0"":""Black-and-white Warbler""}","Magnolia Warbler","Wood-Warblers","758"
"","4823","image-multi-choice","133","1542877","0.0-1.0-132.0","{""Q0"":""Lark Sparrow""}","White-throated Sparrow","New World Sparrows and Allies","764"
"","8752","image-multi-choice","134","1552643","0.0-1.0-133.0","{""Q0"":""Black-and-white Warbler""}","Magnolia Warbler","Wood-Warblers","758"
"","5210","image-multi-choice","135","1558881","0.0-1.0-134.0","{""Q0"":""Orange-crowned Warbler""}","Yellow Warbler","Wood-Warblers","875"
"","6328","image-multi-choice","136","1566236","0.0-1.0-135.0","{""Q0"":""Orange-crowned Warbler""}","Tennessee Warbler","Wood-Warblers","866"
"","9114","image-multi-choice","137","1576387","0.0-1.0-136.0","{""Q0"":""Lincoln's Sparrow""}","Ovenbird","Wood-Warblers","860"
"","12388","image-multi-choice","138","1589802","0.0-1.0-137.0","{""Q0"":""Northern Waterthrush""}","Black-and-white Warbler","Wood-Warblers","864"
"","5410","image-multi-choice","139","1596232","0.0-1.0-138.0","{""Q0"":""Lark Sparrow""}","Chipping Sparrow","New World Sparrows and Allies","769"
"","11839","image-multi-choice","140","1609104","0.0-1.0-139.0","{""Q0"":""Northern Waterthrush""}","Northern Waterthrush","Wood-Warblers","862"
"","4209","image-multi-choice","141","1614339","0.0-1.0-140.0","{""Q0"":""Song Sparrow""}","Vesper Sparrow","New World Sparrows and Allies","898"
"","6357","image-multi-choice","142","1621723","0.0-1.0-141.0","{""Q0"":""Chipping Sparrow""}","White-throated Sparrow","New World Sparrows and Allies","764"
"","5284","image-multi-choice","143","1628036","0.0-1.0-142.0","{""Q0"":""Blackburnian Warbler""}","Magnolia Warbler","Wood-Warblers","758"
"","4565","image-multi-choice","144","1633634","0.0-1.0-143.0","{""Q0"":""Black-and-white Warbler""}","Blackburnian Warbler","Wood-Warblers","874"
"","6438","image-multi-choice","145","1641099","0.0-1.0-144.0","{""Q0"":""Lark Sparrow""}","Lark Sparrow","New World Sparrows and Allies","899"
"","9683","image-multi-choice","146","1651811","0.0-1.0-145.0","{""Q0"":""Tennessee Warbler""}","Song Sparrow","New World Sparrows and Allies","902"
"","4632","image-multi-choice","147","1657480","0.0-1.0-146.0","{""Q0"":""White-crowned Sparrow""}","White-crowned Sparrow","New World Sparrows and Allies","766"
"","5192","image-multi-choice","148","1663699","0.0-1.0-147.0","{""Q0"":""Chipping Sparrow""}","Chipping Sparrow","New World Sparrows and Allies","769"
"","8004","image-multi-choice","149","1672731","0.0-1.0-148.0","{""Q0"":""Lincoln's Sparrow""}","Swamp Sparrow","New World Sparrows and Allies","904"
"","5525","image-multi-choice","150","1679283","0.0-1.0-149.0","{""Q0"":""Fox Sparrow""}","Fox Sparrow","New World Sparrows and Allies","901"
"","3416","image-multi-choice","151","1683731","0.0-1.0-150.0","{""Q0"":""Yellow Warbler""}","Yellow Warbler","Wood-Warblers","875"
"","8573","image-multi-choice","152","1693330","0.0-1.0-151.0","{""Q0"":""Chipping Sparrow""}","White-crowned Sparrow","New World Sparrows and Allies","766"
"","5649","image-multi-choice","153","1699995","0.0-1.0-152.0","{""Q0"":""Song Sparrow""}","Song Sparrow","New World Sparrows and Allies","902"
"","16358","image-multi-choice","154","1717378","0.0-1.0-153.0","{""Q0"":""Northern Waterthrush""}","Northern Waterthrush","Wood-Warblers","862"
"","6880","image-multi-choice","155","1725283","0.0-1.0-154.0","{""Q0"":""Lark Sparrow""}","White-crowned Sparrow","New World Sparrows and Allies","766"
"","3978","image-multi-choice","156","1730274","0.0-1.0-155.0","{""Q0"":""Yellow Warbler""}","Yellow Warbler","Wood-Warblers","875"
"","8416","image-multi-choice","157","1739715","0.0-1.0-156.0","{""Q0"":""Ovenbird""}","White-throated Sparrow","New World Sparrows and Allies","764"
"","4342","image-multi-choice","158","1745082","0.0-1.0-157.0","{""Q0"":""White-crowned Sparrow""}","White-crowned Sparrow","New World Sparrows and Allies","766"
"","9097","image-multi-choice","159","1755211","0.0-1.0-158.0","{""Q0"":""Tennessee Warbler""}","Townsend's Warbler","Wood-Warblers","881"
"","6892","image-multi-choice","160","1763131","0.0-1.0-159.0","{""Q0"":""Tennessee Warbler""}","Tennessee Warbler","Wood-Warblers","866"
"","10432","image-multi-choice","161","1774587","0.0-1.0-160.0","{""Q0"":""Ovenbird""}","White-throated Sparrow","New World Sparrows and Allies","764"
"","8135","image-multi-choice","162","1783747","0.0-1.0-161.0","{""Q0"":""Vesper Sparrow""}","Fox Sparrow","New World Sparrows and Allies","901"
"","4736","image-multi-choice","163","1789511","0.0-1.0-162.0","{""Q0"":""Vesper Sparrow""}","Song Sparrow","New World Sparrows and Allies","902"
"","3400","image-multi-choice","164","1793939","0.0-1.0-163.0","{""Q0"":""White-crowned Sparrow""}","White-crowned Sparrow","New World Sparrows and Allies","766"
"","7983","image-multi-choice","165","1802948","0.0-1.0-164.0","{""Q0"":""Chipping Sparrow""}","Song Sparrow","New World Sparrows and Allies","902"
"","6933","image-multi-choice","166","1810909","0.0-1.0-165.0","{""Q0"":""Northern Waterthrush""}","American Tree Sparrow","New World Sparrows and Allies","894"
"","4772","image-multi-choice","167","1816707","0.0-1.0-166.0","{""Q0"":""Orange-crowned Warbler""}","Orange-crowned Warbler","Wood-Warblers","867"
"","6821","image-multi-choice","168","1824555","0.0-1.0-167.0","{""Q0"":""American Tree Sparrow""}","Lincoln's Sparrow","New World Sparrows and Allies","903"
"","3963","image-multi-choice","169","1829546","0.0-1.0-168.0","{""Q0"":""Blackburnian Warbler""}","Blackburnian Warbler","Wood-Warblers","874"
"","4948","image-multi-choice","170","1835532","0.0-1.0-169.0","{""Q0"":""White-crowned Sparrow""}","White-throated Sparrow","New World Sparrows and Allies","764"
"","4643","image-multi-choice","171","1841203","0.0-1.0-170.0","{""Q0"":""Fox Sparrow""}","Fox Sparrow","New World Sparrows and Allies","901"
"","4507","image-multi-choice","172","1846736","0.0-1.0-171.0","{""Q0"":""Chipping Sparrow""}","Chipping Sparrow","New World Sparrows and Allies","769"
"","7092","image-multi-choice","173","1854843","0.0-1.0-172.0","{""Q0"":""Northern Waterthrush""}","Swamp Sparrow","New World Sparrows and Allies","904"
"","8676","image-multi-choice","174","1864547","0.0-1.0-173.0","{""Q0"":""Swamp Sparrow""}","Lincoln's Sparrow","New World Sparrows and Allies","903"
"","5887","image-multi-choice","175","1871461","0.0-1.0-174.0","{""Q0"":""Lark Sparrow""}","Swamp Sparrow","New World Sparrows and Allies","904"
"","6962","image-multi-choice","176","1879451","0.0-1.0-175.0","{""Q0"":""Townsend's Warbler""}","Townsend's Warbler","Wood-Warblers","881"
"","5816","image-multi-choice","177","1886295","0.0-1.0-176.0","{""Q0"":""Chipping Sparrow""}","American Tree Sparrow","New World Sparrows and Allies","894"
"","4187","image-multi-choice","178","1891509","0.0-1.0-177.0","{""Q0"":""Fox Sparrow""}","Fox Sparrow","New World Sparrows and Allies","901"
"","5073","image-multi-choice","179","1897609","0.0-1.0-178.0","{""Q0"":""Lark Sparrow""}","Lincoln's Sparrow","New World Sparrows and Allies","903"
"","9232","image-multi-choice","180","2160287","0.0-1.0-179.0","{""Q0"":""Blackburnian Warbler""}","Magnolia Warbler","Wood-Warblers","758"
"","6756","image-multi-choice","181","2168067","0.0-1.0-180.0","{""Q0"":""Nashville Warbler""}","Orange-crowned Warbler","Wood-Warblers","867"
"","10131","image-multi-choice","182","2179227","0.0-1.0-181.0","{""Q0"":""Yellow Warbler""}","Tennessee Warbler","Wood-Warblers","866"
"","10915","image-multi-choice","183","2191171","0.0-1.0-182.0","{""Q0"":""American Tree Sparrow""}","Vesper Sparrow","New World Sparrows and Allies","898"
"","9751","image-multi-choice","184","2201939","0.0-1.0-183.0","{""Q0"":""Black-and-white Warbler""}","Blackburnian Warbler","Wood-Warblers","874"
"","8150","image-multi-choice","185","2211116","0.0-1.0-184.0","{""Q0"":""American Tree Sparrow""}","Lincoln's Sparrow","New World Sparrows and Allies","903"
"","4444","image-multi-choice","186","2216587","0.0-1.0-185.0","{""Q0"":""Black-and-white Warbler""}","Townsend's Warbler","Wood-Warblers","881"
"","4078","image-multi-choice","187","2221691","0.0-1.0-186.0","{""Q0"":""Fox Sparrow""}","Ovenbird","Wood-Warblers","860"
"","2749","image-multi-choice","188","2225467","0.0-1.0-187.0","{""Q0"":""Yellow Warbler""}","Orange-crowned Warbler","Wood-Warblers","867"
"","7857","image-multi-choice","189","2234338","0.0-1.0-188.0","{""Q0"":""Lincoln's Sparrow""}","Chipping Sparrow","New World Sparrows and Allies","769"
"","3253","image-multi-choice","190","2238617","0.0-1.0-189.0","{""Q0"":""Chipping Sparrow""}","American Tree Sparrow","New World Sparrows and Allies","894"
"","4633","image-multi-choice","191","2244267","0.0-1.0-190.0","{""Q0"":""Song Sparrow""}","Vesper Sparrow","New World Sparrows and Allies","898"
"","4477","image-multi-choice","192","2249771","0.0-1.0-191.0","{""Q0"":""Swamp Sparrow""}","Lincoln's Sparrow","New World Sparrows and Allies","903"
"","8079","image-multi-choice","193","2258875","0.0-1.0-192.0","{""Q0"":""Lincoln's Sparrow""}","Tennessee Warbler","Wood-Warblers","866"
"","5726","image-multi-choice","194","2265618","0.0-1.0-193.0","{""Q0"":""Chipping Sparrow""}","American Tree Sparrow","New World Sparrows and Allies","894"
"","4271","image-multi-choice","195","2270915","0.0-1.0-194.0","{""Q0"":""Lark Sparrow""}","Lark Sparrow","New World Sparrows and Allies","899"
"","4948","image-multi-choice","196","2276891","0.0-1.0-195.0","{""Q0"":""Yellow Warbler""}","Tennessee Warbler","Wood-Warblers","866"
"","7967","image-multi-choice","197","2285884","0.0-1.0-196.0","{""Q0"":""Lincoln's Sparrow""}","Northern Waterthrush","Wood-Warblers","862"
"","6326","image-multi-choice","198","2293236","0.0-1.0-197.0","{""Q0"":""Swamp Sparrow""}","White-throated Sparrow","New World Sparrows and Allies","764"
"","2718","image-multi-choice","199","2296979","0.0-1.0-198.0","{""Q0"":""Yellow Warbler""}","Yellow Warbler","Wood-Warblers","875"
"","3936","image-multi-choice","200","2301939","0.0-1.0-199.0","{""Q0"":""White-crowned Sparrow""}","White-crowned Sparrow","New World Sparrows and Allies","766"
"","3606","image-multi-choice","201","2306568","0.0-1.0-200.0","{""Q0"":""Chipping Sparrow""}","American Tree Sparrow","New World Sparrows and Allies","894"
"","10880","image-multi-choice","202","2318475","0.0-1.0-201.0","{""Q0"":""Vesper Sparrow""}","Ovenbird","Wood-Warblers","860"
"","6110","image-multi-choice","203","2325612","0.0-1.0-202.0","{""Q0"":""Black-and-white Warbler""}","Magnolia Warbler","Wood-Warblers","758"
"","3451","image-multi-choice","204","2330076","0.0-1.0-203.0","{""Q0"":""Blackburnian Warbler""}","Black-and-white Warbler","Wood-Warblers","864"
"","12855","image-multi-choice","205","2343977","0.0-1.0-204.0","{""Q0"":""Lark Sparrow""}","Northern Waterthrush","Wood-Warblers","862"
"","4056","image-multi-choice","206","2349065","0.0-1.0-205.0","{""Q0"":""Chipping Sparrow""}","American Tree Sparrow","New World Sparrows and Allies","894"
"","4928","image-multi-choice","207","2355019","0.0-1.0-206.0","{""Q0"":""Nashville Warbler""}","Magnolia Warbler","Wood-Warblers","758"
"","3430","image-multi-choice","208","2359474","0.0-1.0-207.0","{""Q0"":""Magnolia Warbler""}","Blackburnian Warbler","Wood-Warblers","874"
"","4832","image-multi-choice","209","2365331","0.0-1.0-208.0","{""Q0"":""Vesper Sparrow""}","Swamp Sparrow","New World Sparrows and Allies","904"
"","6645","image-multi-choice","210","2372996","0.0-1.0-209.0","{""Q0"":""Chipping Sparrow""}","American Tree Sparrow","New World Sparrows and Allies","894"
"","4733","image-multi-choice","211","2378756","0.0-1.0-210.0","{""Q0"":""Fox Sparrow""}","Ovenbird","Wood-Warblers","860"
"","6556","image-multi-choice","212","2386339","0.0-1.0-211.0","{""Q0"":""Chipping Sparrow""}","Swamp Sparrow","New World Sparrows and Allies","904"
"","6279","image-multi-choice","213","2393643","0.0-1.0-212.0","{""Q0"":""Lincoln's Sparrow""}","Song Sparrow","New World Sparrows and Allies","902"
"","4345","image-multi-choice","214","2399012","0.0-1.0-213.0","{""Q0"":""Blackburnian Warbler""}","Blackburnian Warbler","Wood-Warblers","874"
"","4924","image-multi-choice","215","2404963","0.0-1.0-214.0","{""Q0"":""Song Sparrow""}","Vesper Sparrow","New World Sparrows and Allies","898"
"","5379","image-multi-choice","216","2411364","0.0-1.0-215.0","{""Q0"":""Townsend's Warbler""}","Blackburnian Warbler","Wood-Warblers","874"
"","10622","image-multi-choice","217","2423012","0.0-1.0-216.0","{""Q0"":""Lincoln's Sparrow""}","Song Sparrow","New World Sparrows and Allies","902"
"","4438","image-multi-choice","218","2428476","0.0-1.0-217.0","{""Q0"":""Orange-crowned Warbler""}","Tennessee Warbler","Wood-Warblers","866"
"","4887","image-multi-choice","219","2434388","0.0-1.0-218.0","{""Q0"":""Black-and-white Warbler""}","Black-and-white Warbler","Wood-Warblers","864"
"","5624","image-multi-choice","220","2441043","0.0-1.0-219.0","{""Q0"":""Fox Sparrow""}","Ovenbird","Wood-Warblers","860"
"","9511","image-multi-choice","221","2451580","0.0-1.0-220.0","{""Q0"":""White-crowned Sparrow""}","White-throated Sparrow","New World Sparrows and Allies","764"
"","4647","image-multi-choice","222","2457252","0.0-1.0-221.0","{""Q0"":""Song Sparrow""}","Vesper Sparrow","New World Sparrows and Allies","898"
"","8836","image-multi-choice","223","2467108","0.0-1.0-222.0","{""Q0"":""Lark Sparrow""}","American Tree Sparrow","New World Sparrows and Allies","894"
"","3608","image-multi-choice","224","2471747","0.0-1.0-223.0","{""Q0"":""Yellow Warbler""}","Yellow Warbler","Wood-Warblers","875"
"","13346","image-multi-choice","225","2486203","0.0-1.0-224.0","{""Q0"":""Northern Waterthrush""}","Northern Waterthrush","Wood-Warblers","862"
"","4235","image-multi-choice","226","2491467","0.0-1.0-225.0","{""Q0"":""Blackburnian Warbler""}","Blackburnian Warbler","Wood-Warblers","874"
"","5471","image-multi-choice","227","2497965","0.0-1.0-226.0","{""Q0"":""Lark Sparrow""}","White-throated Sparrow","New World Sparrows and Allies","764"
"","7210","image-multi-choice","228","2506203","0.0-1.0-227.0","{""Q0"":""Lark Sparrow""}","Song Sparrow","New World Sparrows and Allies","902"
"","8934","image-multi-choice","229","2516163","0.0-1.0-228.0","{""Q0"":""Vesper Sparrow""}","Ovenbird","Wood-Warblers","860"
"","5327","image-multi-choice","230","2522515","0.0-1.0-229.0","{""Q0"":""Black-and-white Warbler""}","Townsend's Warbler","Wood-Warblers","881"
"","8157","image-multi-choice","231","2531698","0.0-1.0-230.0","{""Q0"":""Nashville Warbler""}","Nashville Warbler","Wood-Warblers","868"
"","5474","image-multi-choice","232","2538275","0.0-1.0-231.0","{""Q0"":""Fox Sparrow""}","Fox Sparrow","New World Sparrows and Allies","901"
"","13076","image-multi-choice","233","2552381","0.0-1.0-232.0","{""Q0"":""Magnolia Warbler""}","Ovenbird","Wood-Warblers","860"
"","5362","image-multi-choice","234","2558771","0.0-1.0-233.0","{""Q0"":""Black-and-white Warbler""}","Magnolia Warbler","Wood-Warblers","758"
"","3799","image-multi-choice","235","2563595","0.0-1.0-234.0","{""Q0"":""Chipping Sparrow""}","American Tree Sparrow","New World Sparrows and Allies","894"
"","9375","image-multi-choice","236","2574004","0.0-1.0-235.0","{""Q0"":""Tennessee Warbler""}","Blackburnian Warbler","Wood-Warblers","874"
"","5292","image-multi-choice","237","2580323","0.0-1.0-236.0","{""Q0"":""Lark Sparrow""}","Chipping Sparrow","New World Sparrows and Allies","769"
"","4830","image-multi-choice","238","2586178","0.0-1.0-237.0","{""Q0"":""Fox Sparrow""}","Fox Sparrow","New World Sparrows and Allies","901"
"","6549","image-multi-choice","239","2593755","0.0-1.0-238.0","{""Q0"":""Northern Waterthrush""}","Vesper Sparrow","New World Sparrows and Allies","898"
"","10414","image-multi-choice","240","2640095","0.0-1.0-239.0","{""Q0"":""Northern Waterthrush""}","Northern Waterthrush","Wood-Warblers","862"
"","4867","image-multi-choice","241","2645987","0.0-1.0-240.0","{""Q0"":""Lark Sparrow""}","Lark Sparrow","New World Sparrows and Allies","899"
"","7305","image-multi-choice","242","2654323","0.0-1.0-241.0","{""Q0"":""Orange-crowned Warbler""}","Nashville Warbler","Wood-Warblers","868"
"","10605","image-multi-choice","243","2665963","0.0-1.0-242.0","{""Q0"":""Nashville Warbler""}","Ovenbird","Wood-Warblers","860"
"","14946","image-multi-choice","244","2681936","0.0-1.0-243.0","{""Q0"":""Northern Waterthrush""}","Northern Waterthrush","Wood-Warblers","862"
"","4286","image-multi-choice","245","2687247","0.0-1.0-244.0","{""Q0"":""Orange-crowned Warbler""}","Orange-crowned Warbler","Wood-Warblers","867"
"","4688","image-multi-choice","246","2692963","0.0-1.0-245.0","{""Q0"":""Lark Sparrow""}","Chipping Sparrow","New World Sparrows and Allies","769"
"","3465","image-multi-choice","247","2697452","0.0-1.0-246.0","{""Q0"":""Yellow Warbler""}","Tennessee Warbler","Wood-Warblers","866"
"","11286","image-multi-choice","248","2709764","0.0-1.0-247.0","{""Q0"":""Ovenbird""}","Yellow Warbler","Wood-Warblers","875"
"","3994","image-multi-choice","249","2714776","0.0-1.0-248.0","{""Q0"":""Lark Sparrow""}","Lincoln's Sparrow","New World Sparrows and Allies","903"
"","7134","image-multi-choice","250","2722923","0.0-1.0-249.0","{""Q0"":""Song Sparrow""}","Vesper Sparrow","New World Sparrows and Allies","898"
"","7280","image-multi-choice","251","2731229","0.0-1.0-250.0","{""Q0"":""Blackburnian Warbler""}","Black-and-white Warbler","Wood-Warblers","864"
"","7656","image-multi-choice","252","2739899","0.0-1.0-251.0","{""Q0"":""Chipping Sparrow""}","Song Sparrow","New World Sparrows and Allies","902"
"","3503","image-multi-choice","253","2744424","0.0-1.0-252.0","{""Q0"":""Song Sparrow""}","Chipping Sparrow","New World Sparrows and Allies","769"
"","11300","image-multi-choice","254","2756824","0.0-1.0-253.0","{""Q0"":""Tennessee Warbler""}","Magnolia Warbler","Wood-Warblers","758"
"","8214","image-multi-choice","255","2766067","0.0-1.0-254.0","{""Q0"":""Lincoln's Sparrow""}","Lincoln's Sparrow","New World Sparrows and Allies","903"
"","6025","image-multi-choice","256","2773122","0.0-1.0-255.0","{""Q0"":""Lark Sparrow""}","White-throated Sparrow","New World Sparrows and Allies","764"
"","6685","image-multi-choice","257","2780828","0.0-1.0-256.0","{""Q0"":""Fox Sparrow""}","Fox Sparrow","New World Sparrows and Allies","901"
"","8437","image-multi-choice","258","2790292","0.0-1.0-257.0","{""Q0"":""Magnolia Warbler""}","Black-and-white Warbler","Wood-Warblers","864"
"","6743","image-multi-choice","259","2798050","0.0-1.0-258.0","{""Q0"":""Swamp Sparrow""}","Chipping Sparrow","New World Sparrows and Allies","769"
"","4128","image-multi-choice","260","2803211","0.0-1.0-259.0","{""Q0"":""Yellow Warbler""}","Orange-crowned Warbler","Wood-Warblers","867"
"","4933","image-multi-choice","261","2809170","0.0-1.0-260.0","{""Q0"":""Lark Sparrow""}","Lark Sparrow","New World Sparrows and Allies","899"
"","4566","image-multi-choice","262","2814764","0.0-1.0-261.0","{""Q0"":""Vesper Sparrow""}","Lincoln's Sparrow","New World Sparrows and Allies","903"
"","9362","image-multi-choice","263","2825152","0.0-1.0-262.0","{""Q0"":""Nashville Warbler""}","Northern Waterthrush","Wood-Warblers","862"
"","9368","image-multi-choice","264","2835535","0.0-1.0-263.0","{""Q0"":""Orange-crowned Warbler""}","Nashville Warbler","Wood-Warblers","868"
"","6728","image-multi-choice","265","2843291","0.0-1.0-264.0","{""Q0"":""Lark Sparrow""}","Lark Sparrow","New World Sparrows and Allies","899"
"","7472","image-multi-choice","266","2851788","0.0-1.0-265.0","{""Q0"":""Nashville Warbler""}","Orange-crowned Warbler","Wood-Warblers","867"
"","3941","image-multi-choice","267","2856756","0.0-1.0-266.0","{""Q0"":""Black-and-white Warbler""}","Magnolia Warbler","Wood-Warblers","758"
"","2538","image-multi-choice","268","2860324","0.0-1.0-267.0","{""Q0"":""Yellow Warbler""}","Orange-crowned Warbler","Wood-Warblers","867"
"","2415","image-multi-choice","269","2863763","0.0-1.0-268.0","{""Q0"":""Yellow Warbler""}","Yellow Warbler","Wood-Warblers","875"
"","5511","image-multi-choice","270","2870301","0.0-1.0-269.0","{""Q0"":""Orange-crowned Warbler""}","Orange-crowned Warbler","Wood-Warblers","867"
"","15988","image-multi-choice","271","2887316","0.0-1.0-270.0","{""Q0"":""Vesper Sparrow""}","Lincoln's Sparrow","New World Sparrows and Allies","903"
"","6071","image-multi-choice","272","2894412","0.0-1.0-271.0","{""Q0"":""Lark Sparrow""}","Lark Sparrow","New World Sparrows and Allies","899"
"","3999","image-multi-choice","273","2899434","0.0-1.0-272.0","{""Q0"":""Lark Sparrow""}","Lincoln's Sparrow","New World Sparrows and Allies","903"
"","5340","image-multi-choice","274","2905803","0.0-1.0-273.0","{""Q0"":""Nashville Warbler""}","Nashville Warbler","Wood-Warblers","868"
"","6654","image-multi-choice","275","2913483","0.0-1.0-274.0","{""Q0"":""Ovenbird""}","Lark Sparrow","New World Sparrows and Allies","899"
"","14431","image-multi-choice","276","2928939","0.0-1.0-275.0","{""Q0"":""Blackburnian Warbler""}","Chipping Sparrow","New World Sparrows and Allies","769"
"","3768","image-multi-choice","277","2933730","0.0-1.0-276.0","{""Q0"":""White-crowned Sparrow""}","White-throated Sparrow","New World Sparrows and Allies","764"
"","4616","image-multi-choice","278","2939373","0.0-1.0-277.0","{""Q0"":""Chipping Sparrow""}","Song Sparrow","New World Sparrows and Allies","902"
"","3972","image-multi-choice","279","2944371","0.0-1.0-278.0","{""Q0"":""Fox Sparrow""}","Ovenbird","Wood-Warblers","860"
"","4780","image-multi-choice","280","2950178","0.0-1.0-279.0","{""Q0"":""Lark Sparrow""}","Lark Sparrow","New World Sparrows and Allies","899"
"","3596","image-multi-choice","281","2954796","0.0-1.0-280.0","{""Q0"":""Chipping Sparrow""}","Chipping Sparrow","New World Sparrows and Allies","769"
"","8575","image-multi-choice","282","2964388","0.0-1.0-281.0","{""Q0"":""Lincoln's Sparrow""}","Lark Sparrow","New World Sparrows and Allies","899"
"","10354","image-multi-choice","283","2975771","0.0-1.0-282.0","{""Q0"":""Vesper Sparrow""}","Song Sparrow","New World Sparrows and Allies","902"
"","9134","image-multi-choice","284","2985930","0.0-1.0-283.0","{""Q0"":""Swamp Sparrow""}","White-throated Sparrow","New World Sparrows and Allies","764"
"","5461","image-multi-choice","285","2992404","0.0-1.0-284.0","{""Q0"":""Black-and-white Warbler""}","Magnolia Warbler","Wood-Warblers","758"
"","2405","image-multi-choice","286","2995835","0.0-1.0-285.0","{""Q0"":""Yellow Warbler""}","Orange-crowned Warbler","Wood-Warblers","867"
"","6089","image-multi-choice","287","3002948","0.0-1.0-286.0","{""Q0"":""Lark Sparrow""}","Lincoln's Sparrow","New World Sparrows and Allies","903"
"","7213","image-multi-choice","288","3011187","0.0-1.0-287.0","{""Q0"":""Swamp Sparrow""}","Lark Sparrow","New World Sparrows and Allies","899"
"","10874","image-multi-choice","289","3023091","0.0-1.0-288.0","{""Q0"":""Tennessee Warbler""}","Townsend's Warbler","Wood-Warblers","881"
"","4415","image-multi-choice","290","3028539","0.0-1.0-289.0","{""Q0"":""Black-and-white Warbler""}","Black-and-white Warbler","Wood-Warblers","864"
"","5316","image-multi-choice","291","3034883","0.0-1.0-290.0","{""Q0"":""Orange-crowned Warbler""}","Tennessee Warbler","Wood-Warblers","866"
"","5775","image-multi-choice","292","3041683","0.0-1.0-291.0","{""Q0"":""Swamp Sparrow""}","American Tree Sparrow","New World Sparrows and Allies","894"
"","5518","image-multi-choice","293","3048233","0.0-1.0-292.0","{""Q0"":""Vesper Sparrow""}","Chipping Sparrow","New World Sparrows and Allies","769"
"","3828","image-multi-choice","294","3053075","0.0-1.0-293.0","{""Q0"":""Lark Sparrow""}","Lark Sparrow","New World Sparrows and Allies","899"
"","7888","image-multi-choice","295","3061988","0.0-1.0-294.0","{""Q0"":""Tennessee Warbler""}","Magnolia Warbler","Wood-Warblers","758"
"","2813","image-multi-choice","296","3065827","0.0-1.0-295.0","{""Q0"":""Yellow Warbler""}","Yellow Warbler","Wood-Warblers","875"
"","5957","image-multi-choice","297","3072811","0.0-1.0-296.0","{""Q0"":""Vesper Sparrow""}","White-crowned Sparrow","New World Sparrows and Allies","766"
"","6235","image-multi-choice","298","3080076","0.0-1.0-297.0","{""Q0"":""Song Sparrow""}","Swamp Sparrow","New World Sparrows and Allies","904"
"","3109","image-multi-choice","299","3084212","0.0-1.0-298.0","{""Q0"":""Yellow Warbler""}","Orange-crowned Warbler","Wood-Warblers","867"
"","6939","image-multi-choice","300","3155833","0.0-1.0-299.0","{""Q0"":""Lark Sparrow""}","Vesper Sparrow","New World Sparrows and Allies","898"
"[{""page_index"":0,""viewing_time"":2885}]","2886","instructions","301","3159720","0.0-2.0","","","",""
