"view_history","rt","trial_type","trial_index","time_elapsed","internal_node_id","responses","bird","family","class"
"[{""page_index"":0,""viewing_time"":6780}]","6781","instructions","0","6782","0.0-0.0","","","",""
"","8459","image-multi-choice","1","16262","0.0-1.0-0.0","{""Q0"":""Chipping Sparrow""}","American Tree Sparrow","New World Sparrows and Allies","894"
"","10816","image-multi-choice","2","28094","0.0-1.0-1.0","{""Q0"":""Tennessee Warbler""}","Tennessee Warbler","Wood-Warblers","866"
"","14239","image-multi-choice","3","43350","0.0-1.0-2.0","{""Q0"":""White-crowned Sparrow""}","White-crowned Sparrow","New World Sparrows and Allies","766"
"","5906","image-multi-choice","4","50268","0.0-1.0-3.0","{""Q0"":""American Tree Sparrow""}","American Tree Sparrow","New World Sparrows and Allies","894"
"","9709","image-multi-choice","5","60987","0.0-1.0-4.0","{""Q0"":""Magnolia Warbler""}","White-crowned Sparrow","New World Sparrows and Allies","766"
"","12584","image-multi-choice","6","74587","0.0-1.0-5.0","{""Q0"":""Blackburnian Warbler""}","Townsend's Warbler","Wood-Warblers","881"
"","6832","image-multi-choice","7","82429","0.0-1.0-6.0","{""Q0"":""Swamp Sparrow""}","Vesper Sparrow","New World Sparrows and Allies","898"
"","14808","image-multi-choice","8","98252","0.0-1.0-7.0","{""Q0"":""Orange-crowned Warbler""}","Nashville Warbler","Wood-Warblers","868"
"","8907","image-multi-choice","9","108170","0.0-1.0-8.0","{""Q0"":""Ovenbird""}","Northern Waterthrush","Wood-Warblers","862"
"","4413","image-multi-choice","10","113596","0.0-1.0-9.0","{""Q0"":""Ovenbird""}","Ovenbird","Wood-Warblers","860"
"","3139","image-multi-choice","11","117747","0.0-1.0-10.0","{""Q0"":""Swamp Sparrow""}","Lincoln's Sparrow","New World Sparrows and Allies","903"
"","5211","image-multi-choice","12","123971","0.0-1.0-11.0","{""Q0"":""Blackburnian Warbler""}","Townsend's Warbler","Wood-Warblers","881"
"","3385","image-multi-choice","13","128370","0.0-1.0-12.0","{""Q0"":""Ovenbird""}","Fox Sparrow","New World Sparrows and Allies","901"
"","6388","image-multi-choice","14","135772","0.0-1.0-13.0","{""Q0"":""Townsend's Warbler""}","Blackburnian Warbler","Wood-Warblers","874"
"","30810","image-multi-choice","15","167594","0.0-1.0-14.0","{""Q0"":""Lark Sparrow""}","Vesper Sparrow","New World Sparrows and Allies","898"
"","3689","image-multi-choice","16","172296","0.0-1.0-15.0","{""Q0"":""Black-and-white Warbler""}","Black-and-white Warbler","Wood-Warblers","864"
"","8991","image-multi-choice","17","182298","0.0-1.0-16.0","{""Q0"":""Nashville Warbler""}","Nashville Warbler","Wood-Warblers","868"
"","6043","image-multi-choice","18","189353","0.0-1.0-17.0","{""Q0"":""Swamp Sparrow""}","Lincoln's Sparrow","New World Sparrows and Allies","903"
"","9233","image-multi-choice","19","199599","0.0-1.0-18.0","{""Q0"":""Tennessee Warbler""}","Nashville Warbler","Wood-Warblers","868"
"","4688","image-multi-choice","20","205297","0.0-1.0-19.0","{""Q0"":""Lark Sparrow""}","Lark Sparrow","New World Sparrows and Allies","899"
"","8810","image-multi-choice","21","215119","0.0-1.0-20.0","{""Q0"":""Townsend's Warbler""}","Magnolia Warbler","Wood-Warblers","758"
"","5350","image-multi-choice","22","221480","0.0-1.0-21.0","{""Q0"":""Blackburnian Warbler""}","Townsend's Warbler","Wood-Warblers","881"
"","9692","image-multi-choice","23","232182","0.0-1.0-22.0","{""Q0"":""Vesper Sparrow""}","Swamp Sparrow","New World Sparrows and Allies","904"
"","7648","image-multi-choice","24","240840","0.0-1.0-23.0","{""Q0"":""Tennessee Warbler""}","Tennessee Warbler","Wood-Warblers","866"
"","3202","image-multi-choice","25","245056","0.0-1.0-24.0","{""Q0"":""Ovenbird""}","Ovenbird","Wood-Warblers","860"
"","7385","image-multi-choice","26","253455","0.0-1.0-25.0","{""Q0"":""Lark Sparrow""}","White-crowned Sparrow","New World Sparrows and Allies","766"
"","7946","image-multi-choice","27","262413","0.0-1.0-26.0","{""Q0"":""Vesper Sparrow""}","Vesper Sparrow","New World Sparrows and Allies","898"
"","5805","image-multi-choice","28","269232","0.0-1.0-27.0","{""Q0"":""Nashville Warbler""}","Orange-crowned Warbler","Wood-Warblers","867"
"","6330","image-multi-choice","29","276574","0.0-1.0-28.0","{""Q0"":""American Tree Sparrow""}","American Tree Sparrow","New World Sparrows and Allies","894"
"","6283","image-multi-choice","30","283871","0.0-1.0-29.0","{""Q0"":""Townsend's Warbler""}","Tennessee Warbler","Wood-Warblers","866"
"","2948","image-multi-choice","31","287830","0.0-1.0-30.0","{""Q0"":""Magnolia Warbler""}","Magnolia Warbler","Wood-Warblers","758"
"","3595","image-multi-choice","32","292438","0.0-1.0-31.0","{""Q0"":""Magnolia Warbler""}","Blackburnian Warbler","Wood-Warblers","874"
"","13193","image-multi-choice","33","306644","0.0-1.0-32.0","{""Q0"":""Tennessee Warbler""}","Tennessee Warbler","Wood-Warblers","866"
"","3236","image-multi-choice","34","310892","0.0-1.0-33.0","{""Q0"":""Lark Sparrow""}","Vesper Sparrow","New World Sparrows and Allies","898"
"","3911","image-multi-choice","35","315812","0.0-1.0-34.0","{""Q0"":""Orange-crowned Warbler""}","Orange-crowned Warbler","Wood-Warblers","867"
"","6363","image-multi-choice","36","323190","0.0-1.0-35.0","{""Q0"":""White-throated Sparrow""}","White-crowned Sparrow","New World Sparrows and Allies","766"
"","3531","image-multi-choice","37","327734","0.0-1.0-36.0","{""Q0"":""Fox Sparrow""}","Fox Sparrow","New World Sparrows and Allies","901"
"","4010","image-multi-choice","38","332756","0.0-1.0-37.0","{""Q0"":""Vesper Sparrow""}","Swamp Sparrow","New World Sparrows and Allies","904"
"","2648","image-multi-choice","39","336414","0.0-1.0-38.0","{""Q0"":""Yellow Warbler""}","Yellow Warbler","Wood-Warblers","875"
"","9051","image-multi-choice","40","346478","0.0-1.0-39.0","{""Q0"":""Blackburnian Warbler""}","Black-and-white Warbler","Wood-Warblers","864"
"","4604","image-multi-choice","41","352094","0.0-1.0-40.0","{""Q0"":""Fox Sparrow""}","Fox Sparrow","New World Sparrows and Allies","901"
"","4153","image-multi-choice","42","357261","0.0-1.0-41.0","{""Q0"":""Northern Waterthrush""}","Northern Waterthrush","Wood-Warblers","862"
"","10098","image-multi-choice","43","368373","0.0-1.0-42.0","{""Q0"":""Nashville Warbler""}","Nashville Warbler","Wood-Warblers","868"
"","3049","image-multi-choice","44","372434","0.0-1.0-43.0","{""Q0"":""Black-and-white Warbler""}","Blackburnian Warbler","Wood-Warblers","874"
"","4304","image-multi-choice","45","377752","0.0-1.0-44.0","{""Q0"":""Yellow Warbler""}","Orange-crowned Warbler","Wood-Warblers","867"
"","14549","image-multi-choice","46","393315","0.0-1.0-45.0","{""Q0"":""Magnolia Warbler""}","Blackburnian Warbler","Wood-Warblers","874"
"","6142","image-multi-choice","47","400466","0.0-1.0-46.0","{""Q0"":""Nashville Warbler""}","Nashville Warbler","Wood-Warblers","868"
"","4167","image-multi-choice","48","405644","0.0-1.0-47.0","{""Q0"":""Ovenbird""}","Northern Waterthrush","Wood-Warblers","862"
"","6061","image-multi-choice","49","412716","0.0-1.0-48.0","{""Q0"":""Song Sparrow""}","Fox Sparrow","New World Sparrows and Allies","901"
"","3982","image-multi-choice","50","417708","0.0-1.0-49.0","{""Q0"":""Swamp Sparrow""}","Swamp Sparrow","New World Sparrows and Allies","904"
"","11235","image-multi-choice","51","429955","0.0-1.0-50.0","{""Q0"":""Tennessee Warbler""}","Nashville Warbler","Wood-Warblers","868"
"","2654","image-multi-choice","52","433619","0.0-1.0-51.0","{""Q0"":""Black-and-white Warbler""}","Black-and-white Warbler","Wood-Warblers","864"
"","6075","image-multi-choice","53","440704","0.0-1.0-52.0","{""Q0"":""American Tree Sparrow""}","American Tree Sparrow","New World Sparrows and Allies","894"
"","2514","image-multi-choice","54","444233","0.0-1.0-53.0","{""Q0"":""Black-and-white Warbler""}","Black-and-white Warbler","Wood-Warblers","864"
"","11869","image-multi-choice","55","457113","0.0-1.0-54.0","{""Q0"":""Townsend's Warbler""}","Townsend's Warbler","Wood-Warblers","881"
"","4690","image-multi-choice","56","462816","0.0-1.0-55.0","{""Q0"":""Vesper Sparrow""}","Lark Sparrow","New World Sparrows and Allies","899"
"","2695","image-multi-choice","57","466522","0.0-1.0-56.0","{""Q0"":""Ovenbird""}","Ovenbird","Wood-Warblers","860"
"","3345","image-multi-choice","58","470882","0.0-1.0-57.0","{""Q0"":""Swamp Sparrow""}","Song Sparrow","New World Sparrows and Allies","902"
"","4998","image-multi-choice","59","476890","0.0-1.0-58.0","{""Q0"":""White-throated Sparrow""}","Chipping Sparrow","New World Sparrows and Allies","769"
"","5848","image-multi-choice","60","497079","0.0-1.0-59.0","{""Q0"":""Blackburnian Warbler""}","Black-and-white Warbler","Wood-Warblers","864"
"","5292","image-multi-choice","61","503385","0.0-1.0-60.0","{""Q0"":""Chipping Sparrow""}","Chipping Sparrow","New World Sparrows and Allies","769"
"","10243","image-multi-choice","62","514641","0.0-1.0-61.0","{""Q0"":""Song Sparrow""}","Swamp Sparrow","New World Sparrows and Allies","904"
"","2386","image-multi-choice","63","518040","0.0-1.0-62.0","{""Q0"":""Yellow Warbler""}","Nashville Warbler","Wood-Warblers","868"
"","4129","image-multi-choice","64","523185","0.0-1.0-63.0","{""Q0"":""Swamp Sparrow""}","Lincoln's Sparrow","New World Sparrows and Allies","903"
"","9724","image-multi-choice","65","533920","0.0-1.0-64.0","{""Q0"":""Tennessee Warbler""}","Black-and-white Warbler","Wood-Warblers","864"
"","3254","image-multi-choice","66","538185","0.0-1.0-65.0","{""Q0"":""Fox Sparrow""}","Fox Sparrow","New World Sparrows and Allies","901"
"","13426","image-multi-choice","67","552623","0.0-1.0-66.0","{""Q0"":""Townsend's Warbler""}","Townsend's Warbler","Wood-Warblers","881"
"","2205","image-multi-choice","68","555839","0.0-1.0-67.0","{""Q0"":""Yellow Warbler""}","Yellow Warbler","Wood-Warblers","875"
"","7188","image-multi-choice","69","564037","0.0-1.0-68.0","{""Q0"":""Tennessee Warbler""}","Tennessee Warbler","Wood-Warblers","866"
"","2517","image-multi-choice","70","567567","0.0-1.0-69.0","{""Q0"":""Ovenbird""}","Ovenbird","Wood-Warblers","860"
"","16195","image-multi-choice","71","584775","0.0-1.0-70.0","{""Q0"":""Magnolia Warbler""}","Townsend's Warbler","Wood-Warblers","881"
"","2436","image-multi-choice","72","588222","0.0-1.0-71.0","{""Q0"":""Black-and-white Warbler""}","Black-and-white Warbler","Wood-Warblers","864"
"","5871","image-multi-choice","73","595103","0.0-1.0-72.0","{""Q0"":""Song Sparrow""}","Song Sparrow","New World Sparrows and Allies","902"
"","3379","image-multi-choice","74","599494","0.0-1.0-73.0","{""Q0"":""Northern Waterthrush""}","Northern Waterthrush","Wood-Warblers","862"
"","6083","image-multi-choice","75","606590","0.0-1.0-74.0","{""Q0"":""Swamp Sparrow""}","Swamp Sparrow","New World Sparrows and Allies","904"
"","3625","image-multi-choice","76","611229","0.0-1.0-75.0","{""Q0"":""White-crowned Sparrow""}","White-crowned Sparrow","New World Sparrows and Allies","766"
"","2351","image-multi-choice","77","614589","0.0-1.0-76.0","{""Q0"":""White-throated Sparrow""}","White-throated Sparrow","New World Sparrows and Allies","764"
"","7051","image-multi-choice","78","622653","0.0-1.0-77.0","{""Q0"":""Magnolia Warbler""}","Townsend's Warbler","Wood-Warblers","881"
"","2748","image-multi-choice","79","626414","0.0-1.0-78.0","{""Q0"":""Swamp Sparrow""}","Vesper Sparrow","New World Sparrows and Allies","898"
"","3657","image-multi-choice","80","631085","0.0-1.0-79.0","{""Q0"":""White-throated Sparrow""}","White-throated Sparrow","New World Sparrows and Allies","764"
"","5750","image-multi-choice","81","637846","0.0-1.0-80.0","{""Q0"":""Townsend's Warbler""}","Northern Waterthrush","Wood-Warblers","862"
"","2332","image-multi-choice","82","641190","0.0-1.0-81.0","{""Q0"":""Yellow Warbler""}","Yellow Warbler","Wood-Warblers","875"
"","6121","image-multi-choice","83","648324","0.0-1.0-82.0","{""Q0"":""Nashville Warbler""}","Nashville Warbler","Wood-Warblers","868"
"","8925","image-multi-choice","84","658261","0.0-1.0-83.0","{""Q0"":""Lark Sparrow""}","Lark Sparrow","New World Sparrows and Allies","899"
"","7970","image-multi-choice","85","667245","0.0-1.0-84.0","{""Q0"":""Yellow Warbler""}","Orange-crowned Warbler","Wood-Warblers","867"
"","3617","image-multi-choice","86","671876","0.0-1.0-85.0","{""Q0"":""Yellow Warbler""}","Nashville Warbler","Wood-Warblers","868"
"","2986","image-multi-choice","87","675877","0.0-1.0-86.0","{""Q0"":""Black-and-white Warbler""}","Black-and-white Warbler","Wood-Warblers","864"
"","3162","image-multi-choice","88","680053","0.0-1.0-87.0","{""Q0"":""Yellow Warbler""}","Nashville Warbler","Wood-Warblers","868"
"","2962","image-multi-choice","89","684028","0.0-1.0-88.0","{""Q0"":""Ovenbird""}","Ovenbird","Wood-Warblers","860"
"","4611","image-multi-choice","90","689652","0.0-1.0-89.0","{""Q0"":""Black-and-white Warbler""}","Black-and-white Warbler","Wood-Warblers","864"
"","6314","image-multi-choice","91","696980","0.0-1.0-90.0","{""Q0"":""Chipping Sparrow""}","Chipping Sparrow","New World Sparrows and Allies","769"
"","3258","image-multi-choice","92","701252","0.0-1.0-91.0","{""Q0"":""Orange-crowned Warbler""}","Tennessee Warbler","Wood-Warblers","866"
"","2825","image-multi-choice","93","705090","0.0-1.0-92.0","{""Q0"":""White-throated Sparrow""}","White-throated Sparrow","New World Sparrows and Allies","764"
"","3492","image-multi-choice","94","709595","0.0-1.0-93.0","{""Q0"":""Song Sparrow""}","Song Sparrow","New World Sparrows and Allies","902"
"","4793","image-multi-choice","95","715403","0.0-1.0-94.0","{""Q0"":""Blackburnian Warbler""}","Blackburnian Warbler","Wood-Warblers","874"
"","6831","image-multi-choice","96","723244","0.0-1.0-95.0","{""Q0"":""Chipping Sparrow""}","American Tree Sparrow","New World Sparrows and Allies","894"
"","2789","image-multi-choice","97","727050","0.0-1.0-96.0","{""Q0"":""White-throated Sparrow""}","White-throated Sparrow","New World Sparrows and Allies","764"
"","2891","image-multi-choice","98","730954","0.0-1.0-97.0","{""Q0"":""Yellow Warbler""}","Orange-crowned Warbler","Wood-Warblers","867"
"","1779","image-multi-choice","99","733747","0.0-1.0-98.0","{""Q0"":""Yellow Warbler""}","Yellow Warbler","Wood-Warblers","875"
"","3020","image-multi-choice","100","737778","0.0-1.0-99.0","{""Q0"":""Song Sparrow""}","Fox Sparrow","New World Sparrows and Allies","901"
"","4580","image-multi-choice","101","743370","0.0-1.0-100.0","{""Q0"":""White-throated Sparrow""}","Chipping Sparrow","New World Sparrows and Allies","769"
"","2956","image-multi-choice","102","747338","0.0-1.0-101.0","{""Q0"":""Ovenbird""}","Northern Waterthrush","Wood-Warblers","862"
"","4273","image-multi-choice","103","752625","0.0-1.0-102.0","{""Q0"":""Swamp Sparrow""}","Swamp Sparrow","New World Sparrows and Allies","904"
"","2101","image-multi-choice","104","755738","0.0-1.0-103.0","{""Q0"":""Ovenbird""}","Northern Waterthrush","Wood-Warblers","862"
"","1963","image-multi-choice","105","758714","0.0-1.0-104.0","{""Q0"":""Yellow Warbler""}","Yellow Warbler","Wood-Warblers","875"
"","5932","image-multi-choice","106","765658","0.0-1.0-105.0","{""Q0"":""Magnolia Warbler""}","Magnolia Warbler","Wood-Warblers","758"
"","8851","image-multi-choice","107","775521","0.0-1.0-106.0","{""Q0"":""Townsend's Warbler""}","Townsend's Warbler","Wood-Warblers","881"
"","3034","image-multi-choice","108","779569","0.0-1.0-107.0","{""Q0"":""Song Sparrow""}","Swamp Sparrow","New World Sparrows and Allies","904"
"","4698","image-multi-choice","109","785281","0.0-1.0-108.0","{""Q0"":""Fox Sparrow""}","Fox Sparrow","New World Sparrows and Allies","901"
"","2067","image-multi-choice","110","788359","0.0-1.0-109.0","{""Q0"":""Yellow Warbler""}","Yellow Warbler","Wood-Warblers","875"
"","3615","image-multi-choice","111","792984","0.0-1.0-110.0","{""Q0"":""Swamp Sparrow""}","Lincoln's Sparrow","New World Sparrows and Allies","903"
"","16531","image-multi-choice","112","810529","0.0-1.0-111.0","{""Q0"":""Magnolia Warbler""}","Townsend's Warbler","Wood-Warblers","881"
"","3960","image-multi-choice","113","815505","0.0-1.0-112.0","{""Q0"":""White-crowned Sparrow""}","White-crowned Sparrow","New World Sparrows and Allies","766"
"","8925","image-multi-choice","114","825440","0.0-1.0-113.0","{""Q0"":""Townsend's Warbler""}","Blackburnian Warbler","Wood-Warblers","874"
"","2667","image-multi-choice","115","829119","0.0-1.0-114.0","{""Q0"":""Yellow Warbler""}","Nashville Warbler","Wood-Warblers","868"
"","5493","image-multi-choice","116","835624","0.0-1.0-115.0","{""Q0"":""Nashville Warbler""}","Tennessee Warbler","Wood-Warblers","866"
"","3225","image-multi-choice","117","839863","0.0-1.0-116.0","{""Q0"":""Swamp Sparrow""}","Vesper Sparrow","New World Sparrows and Allies","898"
"","5914","image-multi-choice","118","846790","0.0-1.0-117.0","{""Q0"":""Swamp Sparrow""}","Swamp Sparrow","New World Sparrows and Allies","904"
"","3397","image-multi-choice","119","851199","0.0-1.0-118.0","{""Q0"":""White-throated Sparrow""}","White-crowned Sparrow","New World Sparrows and Allies","766"
"","4630","image-multi-choice","120","863445","0.0-1.0-119.0","{""Q0"":""Magnolia Warbler""}","Blackburnian Warbler","Wood-Warblers","874"
"","5991","image-multi-choice","121","870447","0.0-1.0-120.0","{""Q0"":""Fox Sparrow""}","Fox Sparrow","New World Sparrows and Allies","901"
"","3290","image-multi-choice","122","874750","0.0-1.0-121.0","{""Q0"":""Lark Sparrow""}","Vesper Sparrow","New World Sparrows and Allies","898"
"","2091","image-multi-choice","123","877854","0.0-1.0-122.0","{""Q0"":""Yellow Warbler""}","Yellow Warbler","Wood-Warblers","875"
"","3043","image-multi-choice","124","881911","0.0-1.0-123.0","{""Q0"":""Swamp Sparrow""}","Song Sparrow","New World Sparrows and Allies","902"
"","8264","image-multi-choice","125","891190","0.0-1.0-124.0","{""Q0"":""Nashville Warbler""}","Townsend's Warbler","Wood-Warblers","881"
"","3363","image-multi-choice","126","895566","0.0-1.0-125.0","{""Q0"":""White-crowned Sparrow""}","White-crowned Sparrow","New World Sparrows and Allies","766"
"","3635","image-multi-choice","127","900214","0.0-1.0-126.0","{""Q0"":""Song Sparrow""}","Song Sparrow","New World Sparrows and Allies","902"
"","2395","image-multi-choice","128","903622","0.0-1.0-127.0","{""Q0"":""Ovenbird""}","Ovenbird","Wood-Warblers","860"
"","7499","image-multi-choice","129","912134","0.0-1.0-128.0","{""Q0"":""Magnolia Warbler""}","Magnolia Warbler","Wood-Warblers","758"
"","3018","image-multi-choice","130","916165","0.0-1.0-129.0","{""Q0"":""Lincoln's Sparrow""}","Swamp Sparrow","New World Sparrows and Allies","904"
"","3210","image-multi-choice","131","920391","0.0-1.0-130.0","{""Q0"":""Vesper Sparrow""}","Lark Sparrow","New World Sparrows and Allies","899"
"","9727","image-multi-choice","132","931133","0.0-1.0-131.0","{""Q0"":""Magnolia Warbler""}","Magnolia Warbler","Wood-Warblers","758"
"","3492","image-multi-choice","133","935637","0.0-1.0-132.0","{""Q0"":""White-throated Sparrow""}","White-throated Sparrow","New World Sparrows and Allies","764"
"","7906","image-multi-choice","134","944557","0.0-1.0-133.0","{""Q0"":""Magnolia Warbler""}","Magnolia Warbler","Wood-Warblers","758"
"","2090","image-multi-choice","135","947661","0.0-1.0-134.0","{""Q0"":""Yellow Warbler""}","Yellow Warbler","Wood-Warblers","875"
"","7537","image-multi-choice","136","956211","0.0-1.0-135.0","{""Q0"":""Nashville Warbler""}","Tennessee Warbler","Wood-Warblers","866"
"","2760","image-multi-choice","137","959980","0.0-1.0-136.0","{""Q0"":""Ovenbird""}","Ovenbird","Wood-Warblers","860"
"","9548","image-multi-choice","138","970541","0.0-1.0-137.0","{""Q0"":""Townsend's Warbler""}","Black-and-white Warbler","Wood-Warblers","864"
"","3445","image-multi-choice","139","974995","0.0-1.0-138.0","{""Q0"":""Swamp Sparrow""}","Chipping Sparrow","New World Sparrows and Allies","769"
"","2702","image-multi-choice","140","978707","0.0-1.0-139.0","{""Q0"":""Northern Waterthrush""}","Northern Waterthrush","Wood-Warblers","862"
"","7690","image-multi-choice","141","987411","0.0-1.0-140.0","{""Q0"":""Lincoln's Sparrow""}","Vesper Sparrow","New World Sparrows and Allies","898"
"","3363","image-multi-choice","142","991787","0.0-1.0-141.0","{""Q0"":""White-throated Sparrow""}","White-throated Sparrow","New World Sparrows and Allies","764"
"","4867","image-multi-choice","143","997667","0.0-1.0-142.0","{""Q0"":""Magnolia Warbler""}","Magnolia Warbler","Wood-Warblers","758"
"","2669","image-multi-choice","144","1001347","0.0-1.0-143.0","{""Q0"":""Magnolia Warbler""}","Blackburnian Warbler","Wood-Warblers","874"
"","3190","image-multi-choice","145","1005547","0.0-1.0-144.0","{""Q0"":""Lark Sparrow""}","Lark Sparrow","New World Sparrows and Allies","899"
"","17811","image-multi-choice","146","1024370","0.0-1.0-145.0","{""Q0"":""Tennessee Warbler""}","Song Sparrow","New World Sparrows and Allies","902"
"","3827","image-multi-choice","147","1029210","0.0-1.0-146.0","{""Q0"":""White-crowned Sparrow""}","White-crowned Sparrow","New World Sparrows and Allies","766"
"","3915","image-multi-choice","148","1034138","0.0-1.0-147.0","{""Q0"":""Swamp Sparrow""}","Chipping Sparrow","New World Sparrows and Allies","769"
"","3990","image-multi-choice","149","1039138","0.0-1.0-148.0","{""Q0"":""White-throated Sparrow""}","Swamp Sparrow","New World Sparrows and Allies","904"
"","3259","image-multi-choice","150","1043409","0.0-1.0-149.0","{""Q0"":""Fox Sparrow""}","Fox Sparrow","New World Sparrows and Allies","901"
"","1963","image-multi-choice","151","1046386","0.0-1.0-150.0","{""Q0"":""Yellow Warbler""}","Yellow Warbler","Wood-Warblers","875"
"","5609","image-multi-choice","152","1053009","0.0-1.0-151.0","{""Q0"":""White-crowned Sparrow""}","White-crowned Sparrow","New World Sparrows and Allies","766"
"","8531","image-multi-choice","153","1062553","0.0-1.0-152.0","{""Q0"":""Magnolia Warbler""}","Song Sparrow","New World Sparrows and Allies","902"
"","3451","image-multi-choice","154","1067019","0.0-1.0-153.0","{""Q0"":""Northern Waterthrush""}","Northern Waterthrush","Wood-Warblers","862"
"","3338","image-multi-choice","155","1071369","0.0-1.0-154.0","{""Q0"":""White-crowned Sparrow""}","White-crowned Sparrow","New World Sparrows and Allies","766"
"","1770","image-multi-choice","156","1074153","0.0-1.0-155.0","{""Q0"":""Yellow Warbler""}","Yellow Warbler","Wood-Warblers","875"
"","4106","image-multi-choice","157","1079273","0.0-1.0-156.0","{""Q0"":""White-throated Sparrow""}","White-throated Sparrow","New World Sparrows and Allies","764"
"","3072","image-multi-choice","158","1083361","0.0-1.0-157.0","{""Q0"":""White-crowned Sparrow""}","White-crowned Sparrow","New World Sparrows and Allies","766"
"","9210","image-multi-choice","159","1093585","0.0-1.0-158.0","{""Q0"":""Yellow Warbler""}","Townsend's Warbler","Wood-Warblers","881"
"","3818","image-multi-choice","160","1098417","0.0-1.0-159.0","{""Q0"":""Yellow Warbler""}","Tennessee Warbler","Wood-Warblers","866"
"","2715","image-multi-choice","161","1102145","0.0-1.0-160.0","{""Q0"":""White-throated Sparrow""}","White-throated Sparrow","New World Sparrows and Allies","764"
"","2707","image-multi-choice","162","1105865","0.0-1.0-161.0","{""Q0"":""Song Sparrow""}","Fox Sparrow","New World Sparrows and Allies","901"
"","3412","image-multi-choice","163","1110288","0.0-1.0-162.0","{""Q0"":""Swamp Sparrow""}","Song Sparrow","New World Sparrows and Allies","902"
"","2742","image-multi-choice","164","1114040","0.0-1.0-163.0","{""Q0"":""White-throated Sparrow""}","White-crowned Sparrow","New World Sparrows and Allies","766"
"","5620","image-multi-choice","165","1120672","0.0-1.0-164.0","{""Q0"":""American Tree Sparrow""}","Song Sparrow","New World Sparrows and Allies","902"
"","5221","image-multi-choice","166","1126904","0.0-1.0-165.0","{""Q0"":""White-throated Sparrow""}","American Tree Sparrow","New World Sparrows and Allies","894"
"","2298","image-multi-choice","167","1130216","0.0-1.0-166.0","{""Q0"":""Yellow Warbler""}","Orange-crowned Warbler","Wood-Warblers","867"
"","2874","image-multi-choice","168","1134103","0.0-1.0-167.0","{""Q0"":""Swamp Sparrow""}","Lincoln's Sparrow","New World Sparrows and Allies","903"
"","10355","image-multi-choice","169","1145471","0.0-1.0-168.0","{""Q0"":""Blackburnian Warbler""}","Blackburnian Warbler","Wood-Warblers","874"
"","2370","image-multi-choice","170","1148855","0.0-1.0-169.0","{""Q0"":""White-throated Sparrow""}","White-throated Sparrow","New World Sparrows and Allies","764"
"","2541","image-multi-choice","171","1152407","0.0-1.0-170.0","{""Q0"":""Fox Sparrow""}","Fox Sparrow","New World Sparrows and Allies","901"
"","5259","image-multi-choice","172","1158678","0.0-1.0-171.0","{""Q0"":""Chipping Sparrow""}","Chipping Sparrow","New World Sparrows and Allies","769"
"","7276","image-multi-choice","173","1166966","0.0-1.0-172.0","{""Q0"":""Swamp Sparrow""}","Swamp Sparrow","New World Sparrows and Allies","904"
"","3733","image-multi-choice","174","1171710","0.0-1.0-173.0","{""Q0"":""Swamp Sparrow""}","Lincoln's Sparrow","New World Sparrows and Allies","903"
"","7435","image-multi-choice","175","1180157","0.0-1.0-174.0","{""Q0"":""Swamp Sparrow""}","Swamp Sparrow","New World Sparrows and Allies","904"
"","4580","image-multi-choice","176","1185750","0.0-1.0-175.0","{""Q0"":""Magnolia Warbler""}","Townsend's Warbler","Wood-Warblers","881"
"","8929","image-multi-choice","177","1195692","0.0-1.0-176.0","{""Q0"":""Song Sparrow""}","American Tree Sparrow","New World Sparrows and Allies","894"
"","3024","image-multi-choice","178","1199724","0.0-1.0-177.0","{""Q0"":""Fox Sparrow""}","Fox Sparrow","New World Sparrows and Allies","901"
"","2974","image-multi-choice","179","1203708","0.0-1.0-178.0","{""Q0"":""Swamp Sparrow""}","Lincoln's Sparrow","New World Sparrows and Allies","903"
"","5518","image-multi-choice","180","1215195","0.0-1.0-179.0","{""Q0"":""Blackburnian Warbler""}","Magnolia Warbler","Wood-Warblers","758"
"","2599","image-multi-choice","181","1218803","0.0-1.0-180.0","{""Q0"":""Yellow Warbler""}","Orange-crowned Warbler","Wood-Warblers","867"
"","5006","image-multi-choice","182","1224819","0.0-1.0-181.0","{""Q0"":""Yellow Warbler""}","Tennessee Warbler","Wood-Warblers","866"
"","4013","image-multi-choice","183","1229844","0.0-1.0-182.0","{""Q0"":""Swamp Sparrow""}","Vesper Sparrow","New World Sparrows and Allies","898"
"","3892","image-multi-choice","184","1234749","0.0-1.0-183.0","{""Q0"":""Magnolia Warbler""}","Blackburnian Warbler","Wood-Warblers","874"
"","2737","image-multi-choice","185","1238500","0.0-1.0-184.0","{""Q0"":""Swamp Sparrow""}","Lincoln's Sparrow","New World Sparrows and Allies","903"
"","4155","image-multi-choice","186","1243667","0.0-1.0-185.0","{""Q0"":""Magnolia Warbler""}","Townsend's Warbler","Wood-Warblers","881"
"","2620","image-multi-choice","187","1247301","0.0-1.0-186.0","{""Q0"":""Ovenbird""}","Ovenbird","Wood-Warblers","860"
"","5089","image-multi-choice","188","1253402","0.0-1.0-187.0","{""Q0"":""Orange-crowned Warbler""}","Orange-crowned Warbler","Wood-Warblers","867"
"","3470","image-multi-choice","189","1257884","0.0-1.0-188.0","{""Q0"":""Chipping Sparrow""}","Chipping Sparrow","New World Sparrows and Allies","769"
"","4643","image-multi-choice","190","1263540","0.0-1.0-189.0","{""Q0"":""Song Sparrow""}","American Tree Sparrow","New World Sparrows and Allies","894"
"","5995","image-multi-choice","191","1270548","0.0-1.0-190.0","{""Q0"":""Swamp Sparrow""}","Vesper Sparrow","New World Sparrows and Allies","898"
"","3188","image-multi-choice","192","1274746","0.0-1.0-191.0","{""Q0"":""Swamp Sparrow""}","Lincoln's Sparrow","New World Sparrows and Allies","903"
"","5109","image-multi-choice","193","1280866","0.0-1.0-192.0","{""Q0"":""Nashville Warbler""}","Tennessee Warbler","Wood-Warblers","866"
"","8404","image-multi-choice","194","1290283","0.0-1.0-193.0","{""Q0"":""Swamp Sparrow""}","American Tree Sparrow","New World Sparrows and Allies","894"
"","4187","image-multi-choice","195","1295482","0.0-1.0-194.0","{""Q0"":""White-throated Sparrow""}","Lark Sparrow","New World Sparrows and Allies","899"
"","2953","image-multi-choice","196","1299450","0.0-1.0-195.0","{""Q0"":""Tennessee Warbler""}","Tennessee Warbler","Wood-Warblers","866"
"","4573","image-multi-choice","197","1305034","0.0-1.0-196.0","{""Q0"":""Northern Waterthrush""}","Northern Waterthrush","Wood-Warblers","862"
"","4387","image-multi-choice","198","1310434","0.0-1.0-197.0","{""Q0"":""White-throated Sparrow""}","White-throated Sparrow","New World Sparrows and Allies","764"
"","1955","image-multi-choice","199","1313401","0.0-1.0-198.0","{""Q0"":""Yellow Warbler""}","Yellow Warbler","Wood-Warblers","875"
"","4461","image-multi-choice","200","1318873","0.0-1.0-199.0","{""Q0"":""White-crowned Sparrow""}","White-crowned Sparrow","New World Sparrows and Allies","766"
"","7191","image-multi-choice","201","1327074","0.0-1.0-200.0","{""Q0"":""Chipping Sparrow""}","American Tree Sparrow","New World Sparrows and Allies","894"
"","2899","image-multi-choice","202","1330984","0.0-1.0-201.0","{""Q0"":""Ovenbird""}","Ovenbird","Wood-Warblers","860"
"","3087","image-multi-choice","203","1335082","0.0-1.0-202.0","{""Q0"":""Blackburnian Warbler""}","Magnolia Warbler","Wood-Warblers","758"
"","4116","image-multi-choice","204","1340209","0.0-1.0-203.0","{""Q0"":""Black-and-white Warbler""}","Black-and-white Warbler","Wood-Warblers","864"
"","3617","image-multi-choice","205","1344840","0.0-1.0-204.0","{""Q0"":""Northern Waterthrush""}","Northern Waterthrush","Wood-Warblers","862"
"","3734","image-multi-choice","206","1349586","0.0-1.0-205.0","{""Q0"":""American Tree Sparrow""}","American Tree Sparrow","New World Sparrows and Allies","894"
"","4338","image-multi-choice","207","1354937","0.0-1.0-206.0","{""Q0"":""Blackburnian Warbler""}","Magnolia Warbler","Wood-Warblers","758"
"","7957","image-multi-choice","208","1363904","0.0-1.0-207.0","{""Q0"":""Townsend's Warbler""}","Blackburnian Warbler","Wood-Warblers","874"
"","2989","image-multi-choice","209","1367904","0.0-1.0-208.0","{""Q0"":""Swamp Sparrow""}","Swamp Sparrow","New World Sparrows and Allies","904"
"","5419","image-multi-choice","210","1374337","0.0-1.0-209.0","{""Q0"":""Lincoln's Sparrow""}","American Tree Sparrow","New World Sparrows and Allies","894"
"","2884","image-multi-choice","211","1378231","0.0-1.0-210.0","{""Q0"":""Ovenbird""}","Ovenbird","Wood-Warblers","860"
"","4181","image-multi-choice","212","1383425","0.0-1.0-211.0","{""Q0"":""Swamp Sparrow""}","Swamp Sparrow","New World Sparrows and Allies","904"
"","2977","image-multi-choice","213","1387416","0.0-1.0-212.0","{""Q0"":""Song Sparrow""}","Song Sparrow","New World Sparrows and Allies","902"
"","4236","image-multi-choice","214","1392664","0.0-1.0-213.0","{""Q0"":""Black-and-white Warbler""}","Blackburnian Warbler","Wood-Warblers","874"
"","3011","image-multi-choice","215","1396688","0.0-1.0-214.0","{""Q0"":""Swamp Sparrow""}","Vesper Sparrow","New World Sparrows and Allies","898"
"","5691","image-multi-choice","216","1403391","0.0-1.0-215.0","{""Q0"":""Blackburnian Warbler""}","Blackburnian Warbler","Wood-Warblers","874"
"","2953","image-multi-choice","217","1407358","0.0-1.0-216.0","{""Q0"":""Swamp Sparrow""}","Song Sparrow","New World Sparrows and Allies","902"
"","5813","image-multi-choice","218","1414184","0.0-1.0-217.0","{""Q0"":""Nashville Warbler""}","Tennessee Warbler","Wood-Warblers","866"
"","2627","image-multi-choice","219","1417824","0.0-1.0-218.0","{""Q0"":""Black-and-white Warbler""}","Black-and-white Warbler","Wood-Warblers","864"
"","2499","image-multi-choice","220","1421335","0.0-1.0-219.0","{""Q0"":""Ovenbird""}","Ovenbird","Wood-Warblers","860"
"","2774","image-multi-choice","221","1425119","0.0-1.0-220.0","{""Q0"":""White-throated Sparrow""}","White-throated Sparrow","New World Sparrows and Allies","764"
"","3874","image-multi-choice","222","1430006","0.0-1.0-221.0","{""Q0"":""Swamp Sparrow""}","Vesper Sparrow","New World Sparrows and Allies","898"
"","4628","image-multi-choice","223","1435646","0.0-1.0-222.0","{""Q0"":""Song Sparrow""}","American Tree Sparrow","New World Sparrows and Allies","894"
"","1730","image-multi-choice","224","1438391","0.0-1.0-223.0","{""Q0"":""Yellow Warbler""}","Yellow Warbler","Wood-Warblers","875"
"","3734","image-multi-choice","225","1443135","0.0-1.0-224.0","{""Q0"":""Northern Waterthrush""}","Northern Waterthrush","Wood-Warblers","862"
"","7026","image-multi-choice","226","1451174","0.0-1.0-225.0","{""Q0"":""Magnolia Warbler""}","Blackburnian Warbler","Wood-Warblers","874"
"","3023","image-multi-choice","227","1455206","0.0-1.0-226.0","{""Q0"":""White-throated Sparrow""}","White-throated Sparrow","New World Sparrows and Allies","764"
"","2997","image-multi-choice","228","1459215","0.0-1.0-227.0","{""Q0"":""Song Sparrow""}","Song Sparrow","New World Sparrows and Allies","902"
"","2505","image-multi-choice","229","1462734","0.0-1.0-228.0","{""Q0"":""Ovenbird""}","Ovenbird","Wood-Warblers","860"
"","3613","image-multi-choice","230","1467359","0.0-1.0-229.0","{""Q0"":""Townsend's Warbler""}","Townsend's Warbler","Wood-Warblers","881"
"","4221","image-multi-choice","231","1472591","0.0-1.0-230.0","{""Q0"":""Yellow Warbler""}","Nashville Warbler","Wood-Warblers","868"
"","4351","image-multi-choice","232","1477958","0.0-1.0-231.0","{""Q0"":""Fox Sparrow""}","Fox Sparrow","New World Sparrows and Allies","901"
"","2566","image-multi-choice","233","1481534","0.0-1.0-232.0","{""Q0"":""Ovenbird""}","Ovenbird","Wood-Warblers","860"
"","2699","image-multi-choice","234","1485246","0.0-1.0-233.0","{""Q0"":""Blackburnian Warbler""}","Magnolia Warbler","Wood-Warblers","758"
"","3970","image-multi-choice","235","1490228","0.0-1.0-234.0","{""Q0"":""American Tree Sparrow""}","American Tree Sparrow","New World Sparrows and Allies","894"
"","5116","image-multi-choice","236","1496357","0.0-1.0-235.0","{""Q0"":""Magnolia Warbler""}","Blackburnian Warbler","Wood-Warblers","874"
"","4971","image-multi-choice","237","1502341","0.0-1.0-236.0","{""Q0"":""American Tree Sparrow""}","Chipping Sparrow","New World Sparrows and Allies","769"
"","2701","image-multi-choice","238","1506053","0.0-1.0-237.0","{""Q0"":""Fox Sparrow""}","Fox Sparrow","New World Sparrows and Allies","901"
"","7820","image-multi-choice","239","1514885","0.0-1.0-238.0","{""Q0"":""Swamp Sparrow""}","Vesper Sparrow","New World Sparrows and Allies","898"
"","3251","image-multi-choice","240","1521459","0.0-1.0-239.0","{""Q0"":""Northern Waterthrush""}","Northern Waterthrush","Wood-Warblers","862"
"","3328","image-multi-choice","241","1525796","0.0-1.0-240.0","{""Q0"":""Lark Sparrow""}","Lark Sparrow","New World Sparrows and Allies","899"
"","5147","image-multi-choice","242","1531956","0.0-1.0-241.0","{""Q0"":""Orange-crowned Warbler""}","Nashville Warbler","Wood-Warblers","868"
"","2379","image-multi-choice","243","1535347","0.0-1.0-242.0","{""Q0"":""Ovenbird""}","Ovenbird","Wood-Warblers","860"
"","2334","image-multi-choice","244","1538692","0.0-1.0-243.0","{""Q0"":""Northern Waterthrush""}","Northern Waterthrush","Wood-Warblers","862"
"","6077","image-multi-choice","245","1545780","0.0-1.0-244.0","{""Q0"":""Nashville Warbler""}","Orange-crowned Warbler","Wood-Warblers","867"
"","3187","image-multi-choice","246","1549980","0.0-1.0-245.0","{""Q0"":""Vesper Sparrow""}","Chipping Sparrow","New World Sparrows and Allies","769"
"","3818","image-multi-choice","247","1554812","0.0-1.0-246.0","{""Q0"":""Tennessee Warbler""}","Tennessee Warbler","Wood-Warblers","866"
"","1684","image-multi-choice","248","1557508","0.0-1.0-247.0","{""Q0"":""Yellow Warbler""}","Yellow Warbler","Wood-Warblers","875"
"","3570","image-multi-choice","249","1562090","0.0-1.0-248.0","{""Q0"":""Swamp Sparrow""}","Lincoln's Sparrow","New World Sparrows and Allies","903"
"","3666","image-multi-choice","250","1566770","0.0-1.0-249.0","{""Q0"":""Song Sparrow""}","Vesper Sparrow","New World Sparrows and Allies","898"
"","3333","image-multi-choice","251","1571115","0.0-1.0-250.0","{""Q0"":""Black-and-white Warbler""}","Black-and-white Warbler","Wood-Warblers","864"
"","4091","image-multi-choice","252","1576218","0.0-1.0-251.0","{""Q0"":""Song Sparrow""}","Song Sparrow","New World Sparrows and Allies","902"
"","5856","image-multi-choice","253","1583089","0.0-1.0-252.0","{""Q0"":""American Tree Sparrow""}","Chipping Sparrow","New World Sparrows and Allies","769"
"","3814","image-multi-choice","254","1587915","0.0-1.0-253.0","{""Q0"":""Blackburnian Warbler""}","Magnolia Warbler","Wood-Warblers","758"
"","3202","image-multi-choice","255","1592129","0.0-1.0-254.0","{""Q0"":""Song Sparrow""}","Lincoln's Sparrow","New World Sparrows and Allies","903"
"","3703","image-multi-choice","256","1596842","0.0-1.0-255.0","{""Q0"":""White-throated Sparrow""}","White-throated Sparrow","New World Sparrows and Allies","764"
"","2484","image-multi-choice","257","1600339","0.0-1.0-256.0","{""Q0"":""Fox Sparrow""}","Fox Sparrow","New World Sparrows and Allies","901"
"","6475","image-multi-choice","258","1607824","0.0-1.0-257.0","{""Q0"":""Townsend's Warbler""}","Black-and-white Warbler","Wood-Warblers","864"
"","6388","image-multi-choice","259","1615225","0.0-1.0-258.0","{""Q0"":""Tennessee Warbler""}","Chipping Sparrow","New World Sparrows and Allies","769"
"","8109","image-multi-choice","260","1624344","0.0-1.0-259.0","{""Q0"":""Yellow Warbler""}","Orange-crowned Warbler","Wood-Warblers","867"
"","3664","image-multi-choice","261","1629018","0.0-1.0-260.0","{""Q0"":""Lark Sparrow""}","Lark Sparrow","New World Sparrows and Allies","899"
"","2793","image-multi-choice","262","1632824","0.0-1.0-261.0","{""Q0"":""Swamp Sparrow""}","Lincoln's Sparrow","New World Sparrows and Allies","903"
"","3539","image-multi-choice","263","1637377","0.0-1.0-262.0","{""Q0"":""Northern Waterthrush""}","Northern Waterthrush","Wood-Warblers","862"
"","4301","image-multi-choice","264","1642689","0.0-1.0-263.0","{""Q0"":""Yellow Warbler""}","Nashville Warbler","Wood-Warblers","868"
"","3611","image-multi-choice","265","1647312","0.0-1.0-264.0","{""Q0"":""Lark Sparrow""}","Lark Sparrow","New World Sparrows and Allies","899"
"","3430","image-multi-choice","266","1651752","0.0-1.0-265.0","{""Q0"":""Tennessee Warbler""}","Orange-crowned Warbler","Wood-Warblers","867"
"","3360","image-multi-choice","267","1656128","0.0-1.0-266.0","{""Q0"":""Blackburnian Warbler""}","Magnolia Warbler","Wood-Warblers","758"
"","2595","image-multi-choice","268","1659736","0.0-1.0-267.0","{""Q0"":""Yellow Warbler""}","Orange-crowned Warbler","Wood-Warblers","867"
"","1758","image-multi-choice","269","1662505","0.0-1.0-268.0","{""Q0"":""Yellow Warbler""}","Yellow Warbler","Wood-Warblers","875"
"","3178","image-multi-choice","270","1666696","0.0-1.0-269.0","{""Q0"":""Tennessee Warbler""}","Orange-crowned Warbler","Wood-Warblers","867"
"","2537","image-multi-choice","271","1670246","0.0-1.0-270.0","{""Q0"":""Swamp Sparrow""}","Lincoln's Sparrow","New World Sparrows and Allies","903"
"","3285","image-multi-choice","272","1674544","0.0-1.0-271.0","{""Q0"":""Lark Sparrow""}","Lark Sparrow","New World Sparrows and Allies","899"
"","2547","image-multi-choice","273","1678104","0.0-1.0-272.0","{""Q0"":""Swamp Sparrow""}","Lincoln's Sparrow","New World Sparrows and Allies","903"
"","6187","image-multi-choice","274","1685304","0.0-1.0-273.0","{""Q0"":""Orange-crowned Warbler""}","Nashville Warbler","Wood-Warblers","868"
"","2826","image-multi-choice","275","1689144","0.0-1.0-274.0","{""Q0"":""Lark Sparrow""}","Lark Sparrow","New World Sparrows and Allies","899"
"","3762","image-multi-choice","276","1693919","0.0-1.0-275.0","{""Q0"":""Swamp Sparrow""}","Chipping Sparrow","New World Sparrows and Allies","769"
"","2530","image-multi-choice","277","1697464","0.0-1.0-276.0","{""Q0"":""White-throated Sparrow""}","White-throated Sparrow","New World Sparrows and Allies","764"
"","2020","image-multi-choice","278","1700495","0.0-1.0-277.0","{""Q0"":""White-throated Sparrow""}","Song Sparrow","New World Sparrows and Allies","902"
"","2715","image-multi-choice","279","1704223","0.0-1.0-278.0","{""Q0"":""Ovenbird""}","Ovenbird","Wood-Warblers","860"
"","5154","image-multi-choice","280","1710391","0.0-1.0-279.0","{""Q0"":""White-throated Sparrow""}","Lark Sparrow","New World Sparrows and Allies","899"
"","1611","image-multi-choice","281","1713015","0.0-1.0-280.0","{""Q0"":""White-throated Sparrow""}","Chipping Sparrow","New World Sparrows and Allies","769"
"","3021","image-multi-choice","282","1717047","0.0-1.0-281.0","{""Q0"":""White-throated Sparrow""}","Lark Sparrow","New World Sparrows and Allies","899"
"","2905","image-multi-choice","283","1720965","0.0-1.0-282.0","{""Q0"":""Song Sparrow""}","Song Sparrow","New World Sparrows and Allies","902"
"","2212","image-multi-choice","284","1724191","0.0-1.0-283.0","{""Q0"":""White-throated Sparrow""}","White-throated Sparrow","New World Sparrows and Allies","764"
"","4018","image-multi-choice","285","1729223","0.0-1.0-284.0","{""Q0"":""Blackburnian Warbler""}","Magnolia Warbler","Wood-Warblers","758"
"","6945","image-multi-choice","286","1737182","0.0-1.0-285.0","{""Q0"":""Tennessee Warbler""}","Orange-crowned Warbler","Wood-Warblers","867"
"","3491","image-multi-choice","287","1741687","0.0-1.0-286.0","{""Q0"":""Swamp Sparrow""}","Lincoln's Sparrow","New World Sparrows and Allies","903"
"","2904","image-multi-choice","288","1745605","0.0-1.0-287.0","{""Q0"":""Lark Sparrow""}","Lark Sparrow","New World Sparrows and Allies","899"
"","7716","image-multi-choice","289","1754334","0.0-1.0-288.0","{""Q0"":""Townsend's Warbler""}","Townsend's Warbler","Wood-Warblers","881"
"","4133","image-multi-choice","290","1759478","0.0-1.0-289.0","{""Q0"":""Magnolia Warbler""}","Black-and-white Warbler","Wood-Warblers","864"
"","3978","image-multi-choice","291","1764469","0.0-1.0-290.0","{""Q0"":""Tennessee Warbler""}","Tennessee Warbler","Wood-Warblers","866"
"","4437","image-multi-choice","292","1769917","0.0-1.0-291.0","{""Q0"":""Song Sparrow""}","American Tree Sparrow","New World Sparrows and Allies","894"
"","4948","image-multi-choice","293","1775878","0.0-1.0-292.0","{""Q0"":""Chipping Sparrow""}","Chipping Sparrow","New World Sparrows and Allies","769"
"","2923","image-multi-choice","294","1779814","0.0-1.0-293.0","{""Q0"":""Lark Sparrow""}","Lark Sparrow","New World Sparrows and Allies","899"
"","2723","image-multi-choice","295","1783550","0.0-1.0-294.0","{""Q0"":""Magnolia Warbler""}","Magnolia Warbler","Wood-Warblers","758"
"","3099","image-multi-choice","296","1787662","0.0-1.0-295.0","{""Q0"":""Yellow Warbler""}","Yellow Warbler","Wood-Warblers","875"
"","3380","image-multi-choice","297","1792053","0.0-1.0-296.0","{""Q0"":""White-crowned Sparrow""}","White-crowned Sparrow","New World Sparrows and Allies","766"
"","5490","image-multi-choice","298","1798557","0.0-1.0-297.0","{""Q0"":""Song Sparrow""}","Swamp Sparrow","New World Sparrows and Allies","904"
"","3354","image-multi-choice","299","1802925","0.0-1.0-298.0","{""Q0"":""Orange-crowned Warbler""}","Orange-crowned Warbler","Wood-Warblers","867"
"","3725","image-multi-choice","300","1811444","0.0-1.0-299.0","{""Q0"":""Swamp Sparrow""}","Vesper Sparrow","New World Sparrows and Allies","898"
"[{""page_index"":0,""viewing_time"":1486}]","1486","instructions","301","1813931","0.0-2.0","","","",""
