[{"view_history":"[{\"page_index\":0,\"viewing_time\":16975}]","rt":16977,"trial_type":"instructions","trial_index":0,"time_elapsed":16978,"internal_node_id":"0.0-0.0"},{"rt":14206,"responses":"{\"Q0\":\"American Tree Sparrow\"}","bird":["American Tree Sparrow"],"family":["New World Sparrows and Allies"],"class":["894"],"trial_type":"image-multi-choice","trial_index":1,"time_elapsed":32226,"internal_node_id":"0.0-1.0-0.0"},{"rt":10742,"responses":"{\"Q0\":\"Northern Waterthrush\"}","bird":["Tennessee Warbler"],"family":["Wood-Warblers"],"class":["866"],"trial_type":"image-multi-choice","trial_index":2,"time_elapsed":44001,"internal_node_id":"0.0-1.0-1.0"},{"rt":8477,"responses":"{\"Q0\":\"Fox Sparrow\"}","bird":["White-crowned Sparrow"],"family":["New World Sparrows and Allies"],"class":["766"],"trial_type":"image-multi-choice","trial_index":3,"time_elapsed":53504,"internal_node_id":"0.0-1.0-2.0"},{"rt":7794,"responses":"{\"Q0\":\"Lark Sparrow\"}","bird":["American Tree Sparrow"],"family":["New World Sparrows and Allies"],"class":["894"],"trial_type":"image-multi-choice","trial_index":4,"time_elapsed":62330,"internal_node_id":"0.0-1.0-3.0"},{"rt":9740,"responses":"{\"Q0\":\"Chipping Sparrow\"}","bird":["White-crowned Sparrow"],"family":["New World Sparrows and Allies"],"class":["766"],"trial_type":"image-multi-choice","trial_index":5,"time_elapsed":73089,"internal_node_id":"0.0-1.0-4.0"},{"rt":11033,"responses":"{\"Q0\":\"Tennessee Warbler\"}","bird":["Townsend's Warbler"],"family":["Wood-Warblers"],"class":["881"],"trial_type":"image-multi-choice","trial_index":6,"time_elapsed":85153,"internal_node_id":"0.0-1.0-5.0"},{"rt":5594,"responses":"{\"Q0\":\"Song Sparrow\"}","bird":["Vesper Sparrow"],"family":["New World Sparrows and Allies"],"class":["898"],"trial_type":"image-multi-choice","trial_index":7,"time_elapsed":91776,"internal_node_id":"0.0-1.0-6.0"},{"rt":25374,"responses":"{\"Q0\":\"Orange-crowned Warbler\"}","bird":["Nashville Warbler"],"family":["Wood-Warblers"],"class":["868"],"trial_type":"image-multi-choice","trial_index":8,"time_elapsed":118179,"internal_node_id":"0.0-1.0-7.0"},{"rt":10731,"responses":"{\"Q0\":\"Black-and-white Warbler\"}","bird":["Northern Waterthrush"],"family":["Wood-Warblers"],"class":["862"],"trial_type":"image-multi-choice","trial_index":9,"time_elapsed":129933,"internal_node_id":"0.0-1.0-8.0"},{"rt":8376,"responses":"{\"Q0\":\"Yellow Warbler\"}","bird":["Ovenbird"],"family":["Wood-Warblers"],"class":["860"],"trial_type":"image-multi-choice","trial_index":10,"time_elapsed":139329,"internal_node_id":"0.0-1.0-9.0"},{"rt":23843,"responses":"{\"Q0\":\"Blackburnian Warbler\"}","bird":["Lincoln's Sparrow"],"family":["New World Sparrows and Allies"],"class":["903"],"trial_type":"image-multi-choice","trial_index":11,"time_elapsed":164204,"internal_node_id":"0.0-1.0-10.0"},{"rt":9457,"responses":"{\"Q0\":\"Orange-crowned Warbler\"}","bird":["Townsend's Warbler"],"family":["Wood-Warblers"],"class":["881"],"trial_type":"image-multi-choice","trial_index":12,"time_elapsed":174685,"internal_node_id":"0.0-1.0-11.0"},{"rt":8195,"responses":"{\"Q0\":\"Vesper Sparrow\"}","bird":["Fox Sparrow"],"family":["New World Sparrows and Allies"],"class":["901"],"trial_type":"image-multi-choice","trial_index":13,"time_elapsed":183898,"internal_node_id":"0.0-1.0-12.0"},{"rt":6261,"responses":"{\"Q0\":\"Magnolia Warbler\"}","bird":["Blackburnian Warbler"],"family":["Wood-Warblers"],"class":["874"],"trial_type":"image-multi-choice","trial_index":14,"time_elapsed":191179,"internal_node_id":"0.0-1.0-13.0"},{"rt":7129,"responses":"{\"Q0\":\"Swamp Sparrow\"}","bird":["Vesper Sparrow"],"family":["New World Sparrows and Allies"],"class":["898"],"trial_type":"image-multi-choice","trial_index":15,"time_elapsed":199327,"internal_node_id":"0.0-1.0-14.0"},{"rt":7542,"responses":"{\"Q0\":\"Black-and-white Warbler\"}","bird":["Black-and-white Warbler"],"family":["Wood-Warblers"],"class":["864"],"trial_type":"image-multi-choice","trial_index":16,"time_elapsed":208056,"internal_node_id":"0.0-1.0-15.0"},{"rt":16700,"responses":"{\"Q0\":\"Nashville Warbler\"}","bird":["Nashville Warbler"],"family":["Wood-Warblers"],"class":["868"],"trial_type":"image-multi-choice","trial_index":17,"time_elapsed":225774,"internal_node_id":"0.0-1.0-16.0"},{"rt":8626,"responses":"{\"Q0\":\"Tennessee Warbler\"}","bird":["Lincoln's Sparrow"],"family":["New World Sparrows and Allies"],"class":["903"],"trial_type":"image-multi-choice","trial_index":18,"time_elapsed":235417,"internal_node_id":"0.0-1.0-17.0"},{"rt":12760,"responses":"{\"Q0\":\"Magnolia Warbler\"}","bird":["Nashville Warbler"],"family":["Wood-Warblers"],"class":["868"],"trial_type":"image-multi-choice","trial_index":19,"time_elapsed":249194,"internal_node_id":"0.0-1.0-18.0"},{"rt":12766,"responses":"{\"Q0\":\"Song Sparrow\"}","bird":["Lark Sparrow"],"family":["New World Sparrows and Allies"],"class":["899"],"trial_type":"image-multi-choice","trial_index":20,"time_elapsed":262972,"internal_node_id":"0.0-1.0-19.0"},{"rt":17343,"responses":"{\"Q0\":\"Blackburnian Warbler\"}","bird":["Magnolia Warbler"],"family":["Wood-Warblers"],"class":["758"],"trial_type":"image-multi-choice","trial_index":21,"time_elapsed":281330,"internal_node_id":"0.0-1.0-20.0"},{"rt":11716,"responses":"{\"Q0\":\"Magnolia Warbler\"}","bird":["Townsend's Warbler"],"family":["Wood-Warblers"],"class":["881"],"trial_type":"image-multi-choice","trial_index":22,"time_elapsed":294059,"internal_node_id":"0.0-1.0-21.0"},{"rt":8276,"responses":"{\"Q0\":\"White-crowned Sparrow\"}","bird":["Swamp Sparrow"],"family":["New World Sparrows and Allies"],"class":["904"],"trial_type":"image-multi-choice","trial_index":23,"time_elapsed":303349,"internal_node_id":"0.0-1.0-22.0"},{"rt":5891,"responses":"{\"Q0\":\"Yellow Warbler\"}","bird":["Tennessee Warbler"],"family":["Wood-Warblers"],"class":["866"],"trial_type":"image-multi-choice","trial_index":24,"time_elapsed":310251,"internal_node_id":"0.0-1.0-23.0"},{"rt":8535,"responses":"{\"Q0\":\"Townsend's Warbler\"}","bird":["Ovenbird"],"family":["Wood-Warblers"],"class":["860"],"trial_type":"image-multi-choice","trial_index":25,"time_elapsed":319801,"internal_node_id":"0.0-1.0-24.0"},{"rt":6699,"responses":"{\"Q0\":\"White-throated Sparrow\"}","bird":["White-crowned Sparrow"],"family":["New World Sparrows and Allies"],"class":["766"],"trial_type":"image-multi-choice","trial_index":26,"time_elapsed":327515,"internal_node_id":"0.0-1.0-25.0"},{"rt":6454,"responses":"{\"Q0\":\"Swamp Sparrow\"}","bird":["Vesper Sparrow"],"family":["New World Sparrows and Allies"],"class":["898"],"trial_type":"image-multi-choice","trial_index":27,"time_elapsed":334983,"internal_node_id":"0.0-1.0-26.0"},{"rt":7065,"responses":"{\"Q0\":\"Ovenbird\"}","bird":["Orange-crowned Warbler"],"family":["Wood-Warblers"],"class":["867"],"trial_type":"image-multi-choice","trial_index":28,"time_elapsed":343065,"internal_node_id":"0.0-1.0-27.0"},{"rt":8139,"responses":"{\"Q0\":\"Vesper Sparrow\"}","bird":["American Tree Sparrow"],"family":["New World Sparrows and Allies"],"class":["894"],"trial_type":"image-multi-choice","trial_index":29,"time_elapsed":352219,"internal_node_id":"0.0-1.0-28.0"},{"rt":6508,"responses":"{\"Q0\":\"Orange-crowned Warbler\"}","bird":["Tennessee Warbler"],"family":["Wood-Warblers"],"class":["866"],"trial_type":"image-multi-choice","trial_index":30,"time_elapsed":359741,"internal_node_id":"0.0-1.0-29.0"},{"rt":6250,"responses":"{\"Q0\":\"White-crowned Sparrow\"}","bird":["Magnolia Warbler"],"family":["Wood-Warblers"],"class":["758"],"trial_type":"image-multi-choice","trial_index":31,"time_elapsed":367009,"internal_node_id":"0.0-1.0-30.0"},{"rt":6905,"responses":"{\"Q0\":\"Blackburnian Warbler\"}","bird":["Blackburnian Warbler"],"family":["Wood-Warblers"],"class":["874"],"trial_type":"image-multi-choice","trial_index":32,"time_elapsed":374929,"internal_node_id":"0.0-1.0-31.0"},{"rt":5553,"responses":"{\"Q0\":\"Northern Waterthrush\"}","bird":["Tennessee Warbler"],"family":["Wood-Warblers"],"class":["866"],"trial_type":"image-multi-choice","trial_index":33,"time_elapsed":381496,"internal_node_id":"0.0-1.0-32.0"},{"rt":10254,"responses":"{\"Q0\":\"Song Sparrow\"}","bird":["Vesper Sparrow"],"family":["New World Sparrows and Allies"],"class":["898"],"trial_type":"image-multi-choice","trial_index":34,"time_elapsed":392767,"internal_node_id":"0.0-1.0-33.0"},{"rt":6440,"responses":"{\"Q0\":\"Northern Waterthrush\"}","bird":["Orange-crowned Warbler"],"family":["Wood-Warblers"],"class":["867"],"trial_type":"image-multi-choice","trial_index":35,"time_elapsed":400223,"internal_node_id":"0.0-1.0-34.0"},{"rt":5685,"responses":"{\"Q0\":\"White-crowned Sparrow\"}","bird":["White-crowned Sparrow"],"family":["New World Sparrows and Allies"],"class":["766"],"trial_type":"image-multi-choice","trial_index":36,"time_elapsed":406922,"internal_node_id":"0.0-1.0-35.0"},{"rt":4870,"responses":"{\"Q0\":\"Northern Waterthrush\"}","bird":["Fox Sparrow"],"family":["New World Sparrows and Allies"],"class":["901"],"trial_type":"image-multi-choice","trial_index":37,"time_elapsed":413000,"internal_node_id":"0.0-1.0-36.0"},{"rt":7268,"responses":"{\"Q0\":\"Orange-crowned Warbler\"}","bird":["Swamp Sparrow"],"family":["New World Sparrows and Allies"],"class":["904"],"trial_type":"image-multi-choice","trial_index":38,"time_elapsed":421282,"internal_node_id":"0.0-1.0-37.0"},{"rt":7048,"responses":"{\"Q0\":\"Yellow Warbler\"}","bird":["Yellow Warbler"],"family":["Wood-Warblers"],"class":["875"],"trial_type":"image-multi-choice","trial_index":39,"time_elapsed":429346,"internal_node_id":"0.0-1.0-38.0"},{"rt":8306,"responses":"{\"Q0\":\"Black-and-white Warbler\"}","bird":["Black-and-white Warbler"],"family":["Wood-Warblers"],"class":["864"],"trial_type":"image-multi-choice","trial_index":40,"time_elapsed":438668,"internal_node_id":"0.0-1.0-39.0"},{"rt":8439,"responses":"{\"Q0\":\"Black-and-white Warbler\"}","bird":["Fox Sparrow"],"family":["New World Sparrows and Allies"],"class":["901"],"trial_type":"image-multi-choice","trial_index":41,"time_elapsed":448119,"internal_node_id":"0.0-1.0-40.0"},{"rt":5644,"responses":"{\"Q0\":\"Northern Waterthrush\"}","bird":["Northern Waterthrush"],"family":["Wood-Warblers"],"class":["862"],"trial_type":"image-multi-choice","trial_index":42,"time_elapsed":454776,"internal_node_id":"0.0-1.0-41.0"},{"rt":4318,"responses":"{\"Q0\":\"Yellow Warbler\"}","bird":["Nashville Warbler"],"family":["Wood-Warblers"],"class":["868"],"trial_type":"image-multi-choice","trial_index":43,"time_elapsed":460108,"internal_node_id":"0.0-1.0-42.0"},{"rt":4101,"responses":"{\"Q0\":\"Black-and-white Warbler\"}","bird":["Blackburnian Warbler"],"family":["Wood-Warblers"],"class":["874"],"trial_type":"image-multi-choice","trial_index":44,"time_elapsed":465225,"internal_node_id":"0.0-1.0-43.0"},{"rt":5898,"responses":"{\"Q0\":\"Ovenbird\"}","bird":["Orange-crowned Warbler"],"family":["Wood-Warblers"],"class":["867"],"trial_type":"image-multi-choice","trial_index":45,"time_elapsed":472139,"internal_node_id":"0.0-1.0-44.0"},{"rt":5984,"responses":"{\"Q0\":\"White-throated Sparrow\"}","bird":["Blackburnian Warbler"],"family":["Wood-Warblers"],"class":["874"],"trial_type":"image-multi-choice","trial_index":46,"time_elapsed":479137,"internal_node_id":"0.0-1.0-45.0"},{"rt":16419,"responses":"{\"Q0\":\"Tennessee Warbler\"}","bird":["Nashville Warbler"],"family":["Wood-Warblers"],"class":["868"],"trial_type":"image-multi-choice","trial_index":47,"time_elapsed":496572,"internal_node_id":"0.0-1.0-46.0"},{"rt":8854,"responses":"{\"Q0\":\"Magnolia Warbler\"}","bird":["Northern Waterthrush"],"family":["Wood-Warblers"],"class":["862"],"trial_type":"image-multi-choice","trial_index":48,"time_elapsed":506439,"internal_node_id":"0.0-1.0-47.0"},{"rt":7132,"responses":"{\"Q0\":\"Vesper Sparrow\"}","bird":["Fox Sparrow"],"family":["New World Sparrows and Allies"],"class":["901"],"trial_type":"image-multi-choice","trial_index":49,"time_elapsed":514584,"internal_node_id":"0.0-1.0-48.0"},{"rt":5564,"responses":"{\"Q0\":\"Song Sparrow\"}","bird":["Swamp Sparrow"],"family":["New World Sparrows and Allies"],"class":["904"],"trial_type":"image-multi-choice","trial_index":50,"time_elapsed":521162,"internal_node_id":"0.0-1.0-49.0"},{"rt":12474,"responses":"{\"Q0\":\"Blackburnian Warbler\"}","bird":["Nashville Warbler"],"family":["Wood-Warblers"],"class":["868"],"trial_type":"image-multi-choice","trial_index":51,"time_elapsed":534650,"internal_node_id":"0.0-1.0-50.0"},{"rt":5339,"responses":"{\"Q0\":\"Black-and-white Warbler\"}","bird":["Black-and-white Warbler"],"family":["Wood-Warblers"],"class":["864"],"trial_type":"image-multi-choice","trial_index":52,"time_elapsed":541002,"internal_node_id":"0.0-1.0-51.0"},{"rt":6737,"responses":"{\"Q0\":\"Swamp Sparrow\"}","bird":["American Tree Sparrow"],"family":["New World Sparrows and Allies"],"class":["894"],"trial_type":"image-multi-choice","trial_index":53,"time_elapsed":548751,"internal_node_id":"0.0-1.0-52.0"},{"rt":9847,"responses":"{\"Q0\":\"Ovenbird\"}","bird":["Black-and-white Warbler"],"family":["Wood-Warblers"],"class":["864"],"trial_type":"image-multi-choice","trial_index":54,"time_elapsed":559614,"internal_node_id":"0.0-1.0-53.0"},{"rt":5735,"responses":"{\"Q0\":\"White-crowned Sparrow\"}","bird":["Townsend's Warbler"],"family":["Wood-Warblers"],"class":["881"],"trial_type":"image-multi-choice","trial_index":55,"time_elapsed":566366,"internal_node_id":"0.0-1.0-54.0"},{"rt":8248,"responses":"{\"Q0\":\"Black-and-white Warbler\"}","bird":["Lark Sparrow"],"family":["New World Sparrows and Allies"],"class":["899"],"trial_type":"image-multi-choice","trial_index":56,"time_elapsed":575630,"internal_node_id":"0.0-1.0-55.0"},{"rt":5475,"responses":"{\"Q0\":\"Northern Waterthrush\"}","bird":["Ovenbird"],"family":["Wood-Warblers"],"class":["860"],"trial_type":"image-multi-choice","trial_index":57,"time_elapsed":582139,"internal_node_id":"0.0-1.0-56.0"},{"rt":4906,"responses":"{\"Q0\":\"Song Sparrow\"}","bird":["Song Sparrow"],"family":["New World Sparrows and Allies"],"class":["902"],"trial_type":"image-multi-choice","trial_index":58,"time_elapsed":588059,"internal_node_id":"0.0-1.0-57.0"},{"rt":7198,"responses":"{\"Q0\":\"Fox Sparrow\"}","bird":["Chipping Sparrow"],"family":["New World Sparrows and Allies"],"class":["769"],"trial_type":"image-multi-choice","trial_index":59,"time_elapsed":596507,"internal_node_id":"0.0-1.0-58.0"},{"rt":5757,"responses":"{\"Q0\":\"Blackburnian Warbler\"}","bird":["Black-and-white Warbler"],"family":["Wood-Warblers"],"class":["864"],"trial_type":"image-multi-choice","trial_index":60,"time_elapsed":614227,"internal_node_id":"0.0-1.0-59.0"},{"rt":9888,"responses":"{\"Q0\":\"Chipping Sparrow\"}","bird":["Chipping Sparrow"],"family":["New World Sparrows and Allies"],"class":["769"],"trial_type":"image-multi-choice","trial_index":61,"time_elapsed":625141,"internal_node_id":"0.0-1.0-60.0"},{"rt":7837,"responses":"{\"Q0\":\"Swamp Sparrow\"}","bird":["Swamp Sparrow"],"family":["New World Sparrows and Allies"],"class":["904"],"trial_type":"image-multi-choice","trial_index":62,"time_elapsed":634005,"internal_node_id":"0.0-1.0-61.0"},{"rt":4920,"responses":"{\"Q0\":\"Ovenbird\"}","bird":["Nashville Warbler"],"family":["Wood-Warblers"],"class":["868"],"trial_type":"image-multi-choice","trial_index":63,"time_elapsed":639946,"internal_node_id":"0.0-1.0-62.0"},{"rt":5883,"responses":"{\"Q0\":\"Orange-crowned Warbler\"}","bird":["Lincoln's Sparrow"],"family":["New World Sparrows and Allies"],"class":["903"],"trial_type":"image-multi-choice","trial_index":64,"time_elapsed":646846,"internal_node_id":"0.0-1.0-63.0"},{"rt":6776,"responses":"{\"Q0\":\"Blackburnian Warbler\"}","bird":["Black-and-white Warbler"],"family":["Wood-Warblers"],"class":["864"],"trial_type":"image-multi-choice","trial_index":65,"time_elapsed":654640,"internal_node_id":"0.0-1.0-64.0"},{"rt":7523,"responses":"{\"Q0\":\"Swamp Sparrow\"}","bird":["Fox Sparrow"],"family":["New World Sparrows and Allies"],"class":["901"],"trial_type":"image-multi-choice","trial_index":66,"time_elapsed":663179,"internal_node_id":"0.0-1.0-65.0"},{"rt":7043,"responses":"{\"Q0\":\"Lincoln's Sparrow\"}","bird":["Townsend's Warbler"],"family":["Wood-Warblers"],"class":["881"],"trial_type":"image-multi-choice","trial_index":67,"time_elapsed":671236,"internal_node_id":"0.0-1.0-66.0"},{"rt":4059,"responses":"{\"Q0\":\"Yellow Warbler\"}","bird":["Yellow Warbler"],"family":["Wood-Warblers"],"class":["875"],"trial_type":"image-multi-choice","trial_index":68,"time_elapsed":676310,"internal_node_id":"0.0-1.0-67.0"},{"rt":11669,"responses":"{\"Q0\":\"Nashville Warbler\"}","bird":["Tennessee Warbler"],"family":["Wood-Warblers"],"class":["866"],"trial_type":"image-multi-choice","trial_index":69,"time_elapsed":688993,"internal_node_id":"0.0-1.0-68.0"},{"rt":6523,"responses":"{\"Q0\":\"Northern Waterthrush\"}","bird":["Ovenbird"],"family":["Wood-Warblers"],"class":["860"],"trial_type":"image-multi-choice","trial_index":70,"time_elapsed":696530,"internal_node_id":"0.0-1.0-69.0"},{"rt":6083,"responses":"{\"Q0\":\"Blackburnian Warbler\"}","bird":["Townsend's Warbler"],"family":["Wood-Warblers"],"class":["881"],"trial_type":"image-multi-choice","trial_index":71,"time_elapsed":703627,"internal_node_id":"0.0-1.0-70.0"},{"rt":6066,"responses":"{\"Q0\":\"Black-and-white Warbler\"}","bird":["Black-and-white Warbler"],"family":["Wood-Warblers"],"class":["864"],"trial_type":"image-multi-choice","trial_index":72,"time_elapsed":710957,"internal_node_id":"0.0-1.0-71.0"},{"rt":5620,"responses":"{\"Q0\":\"White-crowned Sparrow\"}","bird":["Song Sparrow"],"family":["New World Sparrows and Allies"],"class":["902"],"trial_type":"image-multi-choice","trial_index":73,"time_elapsed":717594,"internal_node_id":"0.0-1.0-72.0"},{"rt":5026,"responses":"{\"Q0\":\"Northern Waterthrush\"}","bird":["Northern Waterthrush"],"family":["Wood-Warblers"],"class":["862"],"trial_type":"image-multi-choice","trial_index":74,"time_elapsed":723636,"internal_node_id":"0.0-1.0-73.0"},{"rt":4851,"responses":"{\"Q0\":\"Vesper Sparrow\"}","bird":["Swamp Sparrow"],"family":["New World Sparrows and Allies"],"class":["904"],"trial_type":"image-multi-choice","trial_index":75,"time_elapsed":729503,"internal_node_id":"0.0-1.0-74.0"},{"rt":5061,"responses":"{\"Q0\":\"White-crowned Sparrow\"}","bird":["White-crowned Sparrow"],"family":["New World Sparrows and Allies"],"class":["766"],"trial_type":"image-multi-choice","trial_index":76,"time_elapsed":735578,"internal_node_id":"0.0-1.0-75.0"},{"rt":3604,"responses":"{\"Q0\":\"White-throated Sparrow\"}","bird":["White-throated Sparrow"],"family":["New World Sparrows and Allies"],"class":["764"],"trial_type":"image-multi-choice","trial_index":77,"time_elapsed":740196,"internal_node_id":"0.0-1.0-76.0"},{"rt":6484,"responses":"{\"Q0\":\"Magnolia Warbler\"}","bird":["Townsend's Warbler"],"family":["Wood-Warblers"],"class":["881"],"trial_type":"image-multi-choice","trial_index":78,"time_elapsed":747696,"internal_node_id":"0.0-1.0-77.0"},{"rt":4149,"responses":"{\"Q0\":\"Song Sparrow\"}","bird":["Vesper Sparrow"],"family":["New World Sparrows and Allies"],"class":["898"],"trial_type":"image-multi-choice","trial_index":79,"time_elapsed":752861,"internal_node_id":"0.0-1.0-78.0"},{"rt":7580,"responses":"{\"Q0\":\"Lincoln's Sparrow\"}","bird":["White-throated Sparrow"],"family":["New World Sparrows and Allies"],"class":["764"],"trial_type":"image-multi-choice","trial_index":80,"time_elapsed":761453,"internal_node_id":"0.0-1.0-79.0"},{"rt":5912,"responses":"{\"Q0\":\"Townsend's Warbler\"}","bird":["Northern Waterthrush"],"family":["Wood-Warblers"],"class":["862"],"trial_type":"image-multi-choice","trial_index":81,"time_elapsed":768379,"internal_node_id":"0.0-1.0-80.0"},{"rt":4732,"responses":"{\"Q0\":\"Yellow Warbler\"}","bird":["Yellow Warbler"],"family":["Wood-Warblers"],"class":["875"],"trial_type":"image-multi-choice","trial_index":82,"time_elapsed":774129,"internal_node_id":"0.0-1.0-81.0"},{"rt":3950,"responses":"{\"Q0\":\"Yellow Warbler\"}","bird":["Nashville Warbler"],"family":["Wood-Warblers"],"class":["868"],"trial_type":"image-multi-choice","trial_index":83,"time_elapsed":779099,"internal_node_id":"0.0-1.0-82.0"},{"rt":6343,"responses":"{\"Q0\":\"Lincoln's Sparrow\"}","bird":["Lark Sparrow"],"family":["New World Sparrows and Allies"],"class":["899"],"trial_type":"image-multi-choice","trial_index":84,"time_elapsed":786459,"internal_node_id":"0.0-1.0-83.0"},{"rt":4808,"responses":"{\"Q0\":\"Ovenbird\"}","bird":["Orange-crowned Warbler"],"family":["Wood-Warblers"],"class":["867"],"trial_type":"image-multi-choice","trial_index":85,"time_elapsed":792279,"internal_node_id":"0.0-1.0-84.0"},{"rt":5695,"responses":"{\"Q0\":\"Yellow Warbler\"}","bird":["Nashville Warbler"],"family":["Wood-Warblers"],"class":["868"],"trial_type":"image-multi-choice","trial_index":86,"time_elapsed":798986,"internal_node_id":"0.0-1.0-85.0"},{"rt":5669,"responses":"{\"Q0\":\"Black-and-white Warbler\"}","bird":["Black-and-white Warbler"],"family":["Wood-Warblers"],"class":["864"],"trial_type":"image-multi-choice","trial_index":87,"time_elapsed":805952,"internal_node_id":"0.0-1.0-86.0"},{"rt":3580,"responses":"{\"Q0\":\"Yellow Warbler\"}","bird":["Nashville Warbler"],"family":["Wood-Warblers"],"class":["868"],"trial_type":"image-multi-choice","trial_index":88,"time_elapsed":810546,"internal_node_id":"0.0-1.0-87.0"},{"rt":4386,"responses":"{\"Q0\":\"Northern Waterthrush\"}","bird":["Ovenbird"],"family":["Wood-Warblers"],"class":["860"],"trial_type":"image-multi-choice","trial_index":89,"time_elapsed":815948,"internal_node_id":"0.0-1.0-88.0"},{"rt":6673,"responses":"{\"Q0\":\"Orange-crowned Warbler\"}","bird":["Black-and-white Warbler"],"family":["Wood-Warblers"],"class":["864"],"trial_type":"image-multi-choice","trial_index":90,"time_elapsed":823636,"internal_node_id":"0.0-1.0-89.0"},{"rt":5932,"responses":"{\"Q0\":\"White-throated Sparrow\"}","bird":["Chipping Sparrow"],"family":["New World Sparrows and Allies"],"class":["769"],"trial_type":"image-multi-choice","trial_index":91,"time_elapsed":830583,"internal_node_id":"0.0-1.0-90.0"},{"rt":4081,"responses":"{\"Q0\":\"Yellow Warbler\"}","bird":["Tennessee Warbler"],"family":["Wood-Warblers"],"class":["866"],"trial_type":"image-multi-choice","trial_index":92,"time_elapsed":835678,"internal_node_id":"0.0-1.0-91.0"},{"rt":6081,"responses":"{\"Q0\":\"Vesper Sparrow\"}","bird":["White-throated Sparrow"],"family":["New World Sparrows and Allies"],"class":["764"],"trial_type":"image-multi-choice","trial_index":93,"time_elapsed":842775,"internal_node_id":"0.0-1.0-92.0"},{"rt":6509,"responses":"{\"Q0\":\"Blackburnian Warbler\"}","bird":["Song Sparrow"],"family":["New World Sparrows and Allies"],"class":["902"],"trial_type":"image-multi-choice","trial_index":94,"time_elapsed":850300,"internal_node_id":"0.0-1.0-93.0"},{"rt":4483,"responses":"{\"Q0\":\"Black-and-white Warbler\"}","bird":["Blackburnian Warbler"],"family":["Wood-Warblers"],"class":["874"],"trial_type":"image-multi-choice","trial_index":95,"time_elapsed":855798,"internal_node_id":"0.0-1.0-94.0"},{"rt":5548,"responses":"{\"Q0\":\"White-crowned Sparrow\"}","bird":["American Tree Sparrow"],"family":["New World Sparrows and Allies"],"class":["894"],"trial_type":"image-multi-choice","trial_index":96,"time_elapsed":862361,"internal_node_id":"0.0-1.0-95.0"},{"rt":3483,"responses":"{\"Q0\":\"White-throated Sparrow\"}","bird":["White-throated Sparrow"],"family":["New World Sparrows and Allies"],"class":["764"],"trial_type":"image-multi-choice","trial_index":97,"time_elapsed":866861,"internal_node_id":"0.0-1.0-96.0"},{"rt":6871,"responses":"{\"Q0\":\"Ovenbird\"}","bird":["Orange-crowned Warbler"],"family":["Wood-Warblers"],"class":["867"],"trial_type":"image-multi-choice","trial_index":98,"time_elapsed":874748,"internal_node_id":"0.0-1.0-97.0"},{"rt":3769,"responses":"{\"Q0\":\"Yellow Warbler\"}","bird":["Yellow Warbler"],"family":["Wood-Warblers"],"class":["875"],"trial_type":"image-multi-choice","trial_index":99,"time_elapsed":879532,"internal_node_id":"0.0-1.0-98.0"},{"rt":8133,"responses":"{\"Q0\":\"Orange-crowned Warbler\"}","bird":["Fox Sparrow"],"family":["New World Sparrows and Allies"],"class":["901"],"trial_type":"image-multi-choice","trial_index":100,"time_elapsed":888684,"internal_node_id":"0.0-1.0-99.0"},{"rt":6198,"responses":"{\"Q0\":\"Chipping Sparrow\"}","bird":["Chipping Sparrow"],"family":["New World Sparrows and Allies"],"class":["769"],"trial_type":"image-multi-choice","trial_index":101,"time_elapsed":895897,"internal_node_id":"0.0-1.0-100.0"},{"rt":4920,"responses":"{\"Q0\":\"Northern Waterthrush\"}","bird":["Northern Waterthrush"],"family":["Wood-Warblers"],"class":["862"],"trial_type":"image-multi-choice","trial_index":102,"time_elapsed":901835,"internal_node_id":"0.0-1.0-101.0"},{"rt":6404,"responses":"{\"Q0\":\"Vesper Sparrow\"}","bird":["Swamp Sparrow"],"family":["New World Sparrows and Allies"],"class":["904"],"trial_type":"image-multi-choice","trial_index":103,"time_elapsed":909255,"internal_node_id":"0.0-1.0-102.0"},{"rt":4278,"responses":"{\"Q0\":\"Northern Waterthrush\"}","bird":["Northern Waterthrush"],"family":["Wood-Warblers"],"class":["862"],"trial_type":"image-multi-choice","trial_index":104,"time_elapsed":914552,"internal_node_id":"0.0-1.0-103.0"},{"rt":3200,"responses":"{\"Q0\":\"Yellow Warbler\"}","bird":["Yellow Warbler"],"family":["Wood-Warblers"],"class":["875"],"trial_type":"image-multi-choice","trial_index":105,"time_elapsed":918769,"internal_node_id":"0.0-1.0-104.0"},{"rt":4135,"responses":"{\"Q0\":\"Black-and-white Warbler\"}","bird":["Magnolia Warbler"],"family":["Wood-Warblers"],"class":["758"],"trial_type":"image-multi-choice","trial_index":106,"time_elapsed":923921,"internal_node_id":"0.0-1.0-105.0"},{"rt":4534,"responses":"{\"Q0\":\"Black-and-white Warbler\"}","bird":["Townsend's Warbler"],"family":["Wood-Warblers"],"class":["881"],"trial_type":"image-multi-choice","trial_index":107,"time_elapsed":929469,"internal_node_id":"0.0-1.0-106.0"},{"rt":3530,"responses":"{\"Q0\":\"White-throated Sparrow\"}","bird":["Swamp Sparrow"],"family":["New World Sparrows and Allies"],"class":["904"],"trial_type":"image-multi-choice","trial_index":108,"time_elapsed":934015,"internal_node_id":"0.0-1.0-107.0"},{"rt":4599,"responses":"{\"Q0\":\"Northern Waterthrush\"}","bird":["Fox Sparrow"],"family":["New World Sparrows and Allies"],"class":["901"],"trial_type":"image-multi-choice","trial_index":109,"time_elapsed":939629,"internal_node_id":"0.0-1.0-108.0"},{"rt":3008,"responses":"{\"Q0\":\"Yellow Warbler\"}","bird":["Yellow Warbler"],"family":["Wood-Warblers"],"class":["875"],"trial_type":"image-multi-choice","trial_index":110,"time_elapsed":943653,"internal_node_id":"0.0-1.0-109.0"},{"rt":7946,"responses":"{\"Q0\":\"Blackburnian Warbler\"}","bird":["Lincoln's Sparrow"],"family":["New World Sparrows and Allies"],"class":["903"],"trial_type":"image-multi-choice","trial_index":111,"time_elapsed":952765,"internal_node_id":"0.0-1.0-110.0"},{"rt":6518,"responses":"{\"Q0\":\"Black-and-white Warbler\"}","bird":["Townsend's Warbler"],"family":["Wood-Warblers"],"class":["881"],"trial_type":"image-multi-choice","trial_index":112,"time_elapsed":960299,"internal_node_id":"0.0-1.0-111.0"},{"rt":7735,"responses":"{\"Q0\":\"White-crowned Sparrow\"}","bird":["White-crowned Sparrow"],"family":["New World Sparrows and Allies"],"class":["766"],"trial_type":"image-multi-choice","trial_index":113,"time_elapsed":969049,"internal_node_id":"0.0-1.0-112.0"},{"rt":3816,"responses":"{\"Q0\":\"White-crowned Sparrow\"}","bird":["Blackburnian Warbler"],"family":["Wood-Warblers"],"class":["874"],"trial_type":"image-multi-choice","trial_index":114,"time_elapsed":973879,"internal_node_id":"0.0-1.0-113.0"},{"rt":5079,"responses":"{\"Q0\":\"Ovenbird\"}","bird":["Nashville Warbler"],"family":["Wood-Warblers"],"class":["868"],"trial_type":"image-multi-choice","trial_index":115,"time_elapsed":979973,"internal_node_id":"0.0-1.0-114.0"},{"rt":6940,"responses":"{\"Q0\":\"Nashville Warbler\"}","bird":["Tennessee Warbler"],"family":["Wood-Warblers"],"class":["866"],"trial_type":"image-multi-choice","trial_index":116,"time_elapsed":987929,"internal_node_id":"0.0-1.0-115.0"},{"rt":6223,"responses":"{\"Q0\":\"Fox Sparrow\"}","bird":["Vesper Sparrow"],"family":["New World Sparrows and Allies"],"class":["898"],"trial_type":"image-multi-choice","trial_index":117,"time_elapsed":995164,"internal_node_id":"0.0-1.0-116.0"},{"rt":7663,"responses":"{\"Q0\":\"White-crowned Sparrow\"}","bird":["Swamp Sparrow"],"family":["New World Sparrows and Allies"],"class":["904"],"trial_type":"image-multi-choice","trial_index":118,"time_elapsed":1003842,"internal_node_id":"0.0-1.0-117.0"},{"rt":5001,"responses":"{\"Q0\":\"White-throated Sparrow\"}","bird":["White-crowned Sparrow"],"family":["New World Sparrows and Allies"],"class":["766"],"trial_type":"image-multi-choice","trial_index":119,"time_elapsed":1009857,"internal_node_id":"0.0-1.0-118.0"},{"rt":4568,"responses":"{\"Q0\":\"Black-and-white Warbler\"}","bird":["Blackburnian Warbler"],"family":["Wood-Warblers"],"class":["874"],"trial_type":"image-multi-choice","trial_index":120,"time_elapsed":1024908,"internal_node_id":"0.0-1.0-119.0"},{"rt":9864,"responses":"{\"Q0\":\"Black-and-white Warbler\"}","bird":["Fox Sparrow"],"family":["New World Sparrows and Allies"],"class":["901"],"trial_type":"image-multi-choice","trial_index":121,"time_elapsed":1035800,"internal_node_id":"0.0-1.0-120.0"},{"rt":6219,"responses":"{\"Q0\":\"Chipping Sparrow\"}","bird":["Vesper Sparrow"],"family":["New World Sparrows and Allies"],"class":["898"],"trial_type":"image-multi-choice","trial_index":122,"time_elapsed":1043036,"internal_node_id":"0.0-1.0-121.0"},{"rt":4091,"responses":"{\"Q0\":\"Yellow Warbler\"}","bird":["Yellow Warbler"],"family":["Wood-Warblers"],"class":["875"],"trial_type":"image-multi-choice","trial_index":123,"time_elapsed":1048141,"internal_node_id":"0.0-1.0-122.0"},{"rt":5001,"responses":"{\"Q0\":\"Swamp Sparrow\"}","bird":["Song Sparrow"],"family":["New World Sparrows and Allies"],"class":["902"],"trial_type":"image-multi-choice","trial_index":124,"time_elapsed":1054154,"internal_node_id":"0.0-1.0-123.0"},{"rt":8390,"responses":"{\"Q0\":\"Nashville Warbler\"}","bird":["Townsend's Warbler"],"family":["Wood-Warblers"],"class":["881"],"trial_type":"image-multi-choice","trial_index":125,"time_elapsed":1063557,"internal_node_id":"0.0-1.0-124.0"},{"rt":4244,"responses":"{\"Q0\":\"White-crowned Sparrow\"}","bird":["White-crowned Sparrow"],"family":["New World Sparrows and Allies"],"class":["766"],"trial_type":"image-multi-choice","trial_index":126,"time_elapsed":1068813,"internal_node_id":"0.0-1.0-125.0"},{"rt":3432,"responses":"{\"Q0\":\"White-throated Sparrow\"}","bird":["Song Sparrow"],"family":["New World Sparrows and Allies"],"class":["902"],"trial_type":"image-multi-choice","trial_index":127,"time_elapsed":1073260,"internal_node_id":"0.0-1.0-126.0"},{"rt":4572,"responses":"{\"Q0\":\"Northern Waterthrush\"}","bird":["Ovenbird"],"family":["Wood-Warblers"],"class":["860"],"trial_type":"image-multi-choice","trial_index":128,"time_elapsed":1078848,"internal_node_id":"0.0-1.0-127.0"},{"rt":4522,"responses":"{\"Q0\":\"Black-and-white Warbler\"}","bird":["Magnolia Warbler"],"family":["Wood-Warblers"],"class":["758"],"trial_type":"image-multi-choice","trial_index":129,"time_elapsed":1084383,"internal_node_id":"0.0-1.0-128.0"},{"rt":7171,"responses":"{\"Q0\":\"Orange-crowned Warbler\"}","bird":["Swamp Sparrow"],"family":["New World Sparrows and Allies"],"class":["904"],"trial_type":"image-multi-choice","trial_index":130,"time_elapsed":1092569,"internal_node_id":"0.0-1.0-129.0"},{"rt":4726,"responses":"{\"Q0\":\"White-throated Sparrow\"}","bird":["Lark Sparrow"],"family":["New World Sparrows and Allies"],"class":["899"],"trial_type":"image-multi-choice","trial_index":131,"time_elapsed":1098311,"internal_node_id":"0.0-1.0-130.0"},{"rt":4834,"responses":"{\"Q0\":\"Black-and-white Warbler\"}","bird":["Magnolia Warbler"],"family":["Wood-Warblers"],"class":["758"],"trial_type":"image-multi-choice","trial_index":132,"time_elapsed":1104349,"internal_node_id":"0.0-1.0-131.0"},{"rt":5880,"responses":"{\"Q0\":\"Blackburnian Warbler\"}","bird":["White-throated Sparrow"],"family":["New World Sparrows and Allies"],"class":["764"],"trial_type":"image-multi-choice","trial_index":133,"time_elapsed":1111244,"internal_node_id":"0.0-1.0-132.0"},{"rt":8995,"responses":"{\"Q0\":\"Chipping Sparrow\"}","bird":["Magnolia Warbler"],"family":["Wood-Warblers"],"class":["758"],"trial_type":"image-multi-choice","trial_index":134,"time_elapsed":1121253,"internal_node_id":"0.0-1.0-133.0"},{"rt":3529,"responses":"{\"Q0\":\"Yellow Warbler\"}","bird":["Yellow Warbler"],"family":["Wood-Warblers"],"class":["875"],"trial_type":"image-multi-choice","trial_index":135,"time_elapsed":1125795,"internal_node_id":"0.0-1.0-134.0"},{"rt":7405,"responses":"{\"Q0\":\"Orange-crowned Warbler\"}","bird":["Tennessee Warbler"],"family":["Wood-Warblers"],"class":["866"],"trial_type":"image-multi-choice","trial_index":136,"time_elapsed":1134217,"internal_node_id":"0.0-1.0-135.0"},{"rt":4583,"responses":"{\"Q0\":\"Northern Waterthrush\"}","bird":["Ovenbird"],"family":["Wood-Warblers"],"class":["860"],"trial_type":"image-multi-choice","trial_index":137,"time_elapsed":1139813,"internal_node_id":"0.0-1.0-136.0"},{"rt":8995,"responses":"{\"Q0\":\"Nashville Warbler\"}","bird":["Black-and-white Warbler"],"family":["Wood-Warblers"],"class":["864"],"trial_type":"image-multi-choice","trial_index":138,"time_elapsed":1149824,"internal_node_id":"0.0-1.0-137.0"},{"rt":7753,"responses":"{\"Q0\":\"White-crowned Sparrow\"}","bird":["Chipping Sparrow"],"family":["New World Sparrows and Allies"],"class":["769"],"trial_type":"image-multi-choice","trial_index":139,"time_elapsed":1158591,"internal_node_id":"0.0-1.0-138.0"},{"rt":4633,"responses":"{\"Q0\":\"Northern Waterthrush\"}","bird":["Northern Waterthrush"],"family":["Wood-Warblers"],"class":["862"],"trial_type":"image-multi-choice","trial_index":140,"time_elapsed":1164239,"internal_node_id":"0.0-1.0-139.0"},{"rt":5514,"responses":"{\"Q0\":\"Lark Sparrow\"}","bird":["Vesper Sparrow"],"family":["New World Sparrows and Allies"],"class":["898"],"trial_type":"image-multi-choice","trial_index":141,"time_elapsed":1170769,"internal_node_id":"0.0-1.0-140.0"},{"rt":3647,"responses":"{\"Q0\":\"White-throated Sparrow\"}","bird":["White-throated Sparrow"],"family":["New World Sparrows and Allies"],"class":["764"],"trial_type":"image-multi-choice","trial_index":142,"time_elapsed":1175433,"internal_node_id":"0.0-1.0-141.0"},{"rt":5345,"responses":"{\"Q0\":\"Black-and-white Warbler\"}","bird":["Magnolia Warbler"],"family":["Wood-Warblers"],"class":["758"],"trial_type":"image-multi-choice","trial_index":143,"time_elapsed":1181792,"internal_node_id":"0.0-1.0-142.0"},{"rt":4465,"responses":"{\"Q0\":\"Black-and-white Warbler\"}","bird":["Blackburnian Warbler"],"family":["Wood-Warblers"],"class":["874"],"trial_type":"image-multi-choice","trial_index":144,"time_elapsed":1187271,"internal_node_id":"0.0-1.0-143.0"},{"rt":10243,"responses":"{\"Q0\":\"Ovenbird\"}","bird":["Lark Sparrow"],"family":["New World Sparrows and Allies"],"class":["899"],"trial_type":"image-multi-choice","trial_index":145,"time_elapsed":1198787,"internal_node_id":"0.0-1.0-144.0"},{"rt":5054,"responses":"{\"Q0\":\"Orange-crowned Warbler\"}","bird":["Song Sparrow"],"family":["New World Sparrows and Allies"],"class":["902"],"trial_type":"image-multi-choice","trial_index":146,"time_elapsed":1204858,"internal_node_id":"0.0-1.0-145.0"},{"rt":3748,"responses":"{\"Q0\":\"White-crowned Sparrow\"}","bird":["White-crowned Sparrow"],"family":["New World Sparrows and Allies"],"class":["766"],"trial_type":"image-multi-choice","trial_index":147,"time_elapsed":1209620,"internal_node_id":"0.0-1.0-146.0"},{"rt":6219,"responses":"{\"Q0\":\"Song Sparrow\"}","bird":["Chipping Sparrow"],"family":["New World Sparrows and Allies"],"class":["769"],"trial_type":"image-multi-choice","trial_index":148,"time_elapsed":1216851,"internal_node_id":"0.0-1.0-147.0"},{"rt":6721,"responses":"{\"Q0\":\"Orange-crowned Warbler\"}","bird":["Swamp Sparrow"],"family":["New World Sparrows and Allies"],"class":["904"],"trial_type":"image-multi-choice","trial_index":149,"time_elapsed":1224594,"internal_node_id":"0.0-1.0-148.0"},{"rt":4260,"responses":"{\"Q0\":\"Northern Waterthrush\"}","bird":["Fox Sparrow"],"family":["New World Sparrows and Allies"],"class":["901"],"trial_type":"image-multi-choice","trial_index":150,"time_elapsed":1229869,"internal_node_id":"0.0-1.0-149.0"},{"rt":4143,"responses":"{\"Q0\":\"Yellow Warbler\"}","bird":["Yellow Warbler"],"family":["Wood-Warblers"],"class":["875"],"trial_type":"image-multi-choice","trial_index":151,"time_elapsed":1235028,"internal_node_id":"0.0-1.0-150.0"},{"rt":5972,"responses":"{\"Q0\":\"White-crowned Sparrow\"}","bird":["White-crowned Sparrow"],"family":["New World Sparrows and Allies"],"class":["766"],"trial_type":"image-multi-choice","trial_index":152,"time_elapsed":1242015,"internal_node_id":"0.0-1.0-151.0"},{"rt":5926,"responses":"{\"Q0\":\"Northern Waterthrush\"}","bird":["Song Sparrow"],"family":["New World Sparrows and Allies"],"class":["902"],"trial_type":"image-multi-choice","trial_index":153,"time_elapsed":1248954,"internal_node_id":"0.0-1.0-152.0"},{"rt":10665,"responses":"{\"Q0\":\"Magnolia Warbler\"}","bird":["Northern Waterthrush"],"family":["Wood-Warblers"],"class":["862"],"trial_type":"image-multi-choice","trial_index":154,"time_elapsed":1260635,"internal_node_id":"0.0-1.0-153.0"},{"rt":4092,"responses":"{\"Q0\":\"White-throated Sparrow\"}","bird":["White-crowned Sparrow"],"family":["New World Sparrows and Allies"],"class":["766"],"trial_type":"image-multi-choice","trial_index":155,"time_elapsed":1265741,"internal_node_id":"0.0-1.0-154.0"},{"rt":7170,"responses":"{\"Q0\":\"Townsend's Warbler\"}","bird":["Yellow Warbler"],"family":["Wood-Warblers"],"class":["875"],"trial_type":"image-multi-choice","trial_index":156,"time_elapsed":1273922,"internal_node_id":"0.0-1.0-155.0"},{"rt":3172,"responses":"{\"Q0\":\"White-throated Sparrow\"}","bird":["White-throated Sparrow"],"family":["New World Sparrows and Allies"],"class":["764"],"trial_type":"image-multi-choice","trial_index":157,"time_elapsed":1278112,"internal_node_id":"0.0-1.0-156.0"},{"rt":2870,"responses":"{\"Q0\":\"White-crowned Sparrow\"}","bird":["White-crowned Sparrow"],"family":["New World Sparrows and Allies"],"class":["766"],"trial_type":"image-multi-choice","trial_index":158,"time_elapsed":1282001,"internal_node_id":"0.0-1.0-157.0"},{"rt":3689,"responses":"{\"Q0\":\"Black-and-white Warbler\"}","bird":["Townsend's Warbler"],"family":["Wood-Warblers"],"class":["881"],"trial_type":"image-multi-choice","trial_index":159,"time_elapsed":1286706,"internal_node_id":"0.0-1.0-158.0"},{"rt":8782,"responses":"{\"Q0\":\"Orange-crowned Warbler\"}","bird":["Tennessee Warbler"],"family":["Wood-Warblers"],"class":["866"],"trial_type":"image-multi-choice","trial_index":160,"time_elapsed":1296502,"internal_node_id":"0.0-1.0-159.0"},{"rt":12016,"responses":"{\"Q0\":\"White-throated Sparrow\"}","bird":["White-throated Sparrow"],"family":["New World Sparrows and Allies"],"class":["764"],"trial_type":"image-multi-choice","trial_index":161,"time_elapsed":1309532,"internal_node_id":"0.0-1.0-160.0"},{"rt":4224,"responses":"{\"Q0\":\"Northern Waterthrush\"}","bird":["Fox Sparrow"],"family":["New World Sparrows and Allies"],"class":["901"],"trial_type":"image-multi-choice","trial_index":162,"time_elapsed":1314771,"internal_node_id":"0.0-1.0-161.0"},{"rt":6297,"responses":"{\"Q0\":\"Vesper Sparrow\"}","bird":["Song Sparrow"],"family":["New World Sparrows and Allies"],"class":["902"],"trial_type":"image-multi-choice","trial_index":163,"time_elapsed":1322088,"internal_node_id":"0.0-1.0-162.0"},{"rt":3761,"responses":"{\"Q0\":\"White-crowned Sparrow\"}","bird":["White-crowned Sparrow"],"family":["New World Sparrows and Allies"],"class":["766"],"trial_type":"image-multi-choice","trial_index":164,"time_elapsed":1326866,"internal_node_id":"0.0-1.0-163.0"},{"rt":3871,"responses":"{\"Q0\":\"White-crowned Sparrow\"}","bird":["Song Sparrow"],"family":["New World Sparrows and Allies"],"class":["902"],"trial_type":"image-multi-choice","trial_index":165,"time_elapsed":1331756,"internal_node_id":"0.0-1.0-164.0"},{"rt":6326,"responses":"{\"Q0\":\"White-crowned Sparrow\"}","bird":["American Tree Sparrow"],"family":["New World Sparrows and Allies"],"class":["894"],"trial_type":"image-multi-choice","trial_index":166,"time_elapsed":1339099,"internal_node_id":"0.0-1.0-165.0"},{"rt":8029,"responses":"{\"Q0\":\"Nashville Warbler\"}","bird":["Orange-crowned Warbler"],"family":["Wood-Warblers"],"class":["867"],"trial_type":"image-multi-choice","trial_index":167,"time_elapsed":1348142,"internal_node_id":"0.0-1.0-166.0"},{"rt":4246,"responses":"{\"Q0\":\"White-throated Sparrow\"}","bird":["Lincoln's Sparrow"],"family":["New World Sparrows and Allies"],"class":["903"],"trial_type":"image-multi-choice","trial_index":168,"time_elapsed":1353404,"internal_node_id":"0.0-1.0-167.0"},{"rt":5014,"responses":"{\"Q0\":\"Black-and-white Warbler\"}","bird":["Blackburnian Warbler"],"family":["Wood-Warblers"],"class":["874"],"trial_type":"image-multi-choice","trial_index":169,"time_elapsed":1359724,"internal_node_id":"0.0-1.0-168.0"},{"rt":3642,"responses":"{\"Q0\":\"White-throated Sparrow\"}","bird":["White-throated Sparrow"],"family":["New World Sparrows and Allies"],"class":["764"],"trial_type":"image-multi-choice","trial_index":170,"time_elapsed":1364380,"internal_node_id":"0.0-1.0-169.0"},{"rt":4657,"responses":"{\"Q0\":\"Northern Waterthrush\"}","bird":["Fox Sparrow"],"family":["New World Sparrows and Allies"],"class":["901"],"trial_type":"image-multi-choice","trial_index":171,"time_elapsed":1370071,"internal_node_id":"0.0-1.0-170.0"},{"rt":4887,"responses":"{\"Q0\":\"White-crowned Sparrow\"}","bird":["Chipping Sparrow"],"family":["New World Sparrows and Allies"],"class":["769"],"trial_type":"image-multi-choice","trial_index":172,"time_elapsed":1375971,"internal_node_id":"0.0-1.0-171.0"},{"rt":5711,"responses":"{\"Q0\":\"Vesper Sparrow\"}","bird":["Swamp Sparrow"],"family":["New World Sparrows and Allies"],"class":["904"],"trial_type":"image-multi-choice","trial_index":173,"time_elapsed":1382699,"internal_node_id":"0.0-1.0-172.0"},{"rt":6313,"responses":"{\"Q0\":\"Lincoln's Sparrow\"}","bird":["Lincoln's Sparrow"],"family":["New World Sparrows and Allies"],"class":["903"],"trial_type":"image-multi-choice","trial_index":174,"time_elapsed":1390026,"internal_node_id":"0.0-1.0-173.0"},{"rt":5273,"responses":"{\"Q0\":\"Fox Sparrow\"}","bird":["Swamp Sparrow"],"family":["New World Sparrows and Allies"],"class":["904"],"trial_type":"image-multi-choice","trial_index":175,"time_elapsed":1396314,"internal_node_id":"0.0-1.0-174.0"},{"rt":4501,"responses":"{\"Q0\":\"Black-and-white Warbler\"}","bird":["Townsend's Warbler"],"family":["Wood-Warblers"],"class":["881"],"trial_type":"image-multi-choice","trial_index":176,"time_elapsed":1401831,"internal_node_id":"0.0-1.0-175.0"},{"rt":5960,"responses":"{\"Q0\":\"White-throated Sparrow\"}","bird":["American Tree Sparrow"],"family":["New World Sparrows and Allies"],"class":["894"],"trial_type":"image-multi-choice","trial_index":177,"time_elapsed":1408808,"internal_node_id":"0.0-1.0-176.0"},{"rt":3618,"responses":"{\"Q0\":\"Northern Waterthrush\"}","bird":["Fox Sparrow"],"family":["New World Sparrows and Allies"],"class":["901"],"trial_type":"image-multi-choice","trial_index":178,"time_elapsed":1413441,"internal_node_id":"0.0-1.0-177.0"},{"rt":7461,"responses":"{\"Q0\":\"Swamp Sparrow\"}","bird":["Lincoln's Sparrow"],"family":["New World Sparrows and Allies"],"class":["903"],"trial_type":"image-multi-choice","trial_index":179,"time_elapsed":1421917,"internal_node_id":"0.0-1.0-178.0"},{"rt":3787,"responses":"{\"Q0\":\"Black-and-white Warbler\"}","bird":["Magnolia Warbler"],"family":["Wood-Warblers"],"class":["758"],"trial_type":"image-multi-choice","trial_index":180,"time_elapsed":1434444,"internal_node_id":"0.0-1.0-179.0"},{"rt":7585,"responses":"{\"Q0\":\"Yellow Warbler\"}","bird":["Orange-crowned Warbler"],"family":["Wood-Warblers"],"class":["867"],"trial_type":"image-multi-choice","trial_index":181,"time_elapsed":1443045,"internal_node_id":"0.0-1.0-180.0"},{"rt":4210,"responses":"{\"Q0\":\"Yellow Warbler\"}","bird":["Tennessee Warbler"],"family":["Wood-Warblers"],"class":["866"],"trial_type":"image-multi-choice","trial_index":182,"time_elapsed":1448271,"internal_node_id":"0.0-1.0-181.0"},{"rt":4203,"responses":"{\"Q0\":\"Orange-crowned Warbler\"}","bird":["Vesper Sparrow"],"family":["New World Sparrows and Allies"],"class":["898"],"trial_type":"image-multi-choice","trial_index":183,"time_elapsed":1453490,"internal_node_id":"0.0-1.0-182.0"},{"rt":3304,"responses":"{\"Q0\":\"Black-and-white Warbler\"}","bird":["Blackburnian Warbler"],"family":["Wood-Warblers"],"class":["874"],"trial_type":"image-multi-choice","trial_index":184,"time_elapsed":1457808,"internal_node_id":"0.0-1.0-183.0"},{"rt":6602,"responses":"{\"Q0\":\"Song Sparrow\"}","bird":["Lincoln's Sparrow"],"family":["New World Sparrows and Allies"],"class":["903"],"trial_type":"image-multi-choice","trial_index":185,"time_elapsed":1465424,"internal_node_id":"0.0-1.0-184.0"},{"rt":3942,"responses":"{\"Q0\":\"Black-and-white Warbler\"}","bird":["Townsend's Warbler"],"family":["Wood-Warblers"],"class":["881"],"trial_type":"image-multi-choice","trial_index":186,"time_elapsed":1470383,"internal_node_id":"0.0-1.0-185.0"},{"rt":4221,"responses":"{\"Q0\":\"Lark Sparrow\"}","bird":["Ovenbird"],"family":["Wood-Warblers"],"class":["860"],"trial_type":"image-multi-choice","trial_index":187,"time_elapsed":1475618,"internal_node_id":"0.0-1.0-186.0"},{"rt":4005,"responses":"{\"Q0\":\"Yellow Warbler\"}","bird":["Orange-crowned Warbler"],"family":["Wood-Warblers"],"class":["867"],"trial_type":"image-multi-choice","trial_index":188,"time_elapsed":1480638,"internal_node_id":"0.0-1.0-187.0"},{"rt":7951,"responses":"{\"Q0\":\"White-crowned Sparrow\"}","bird":["Chipping Sparrow"],"family":["New World Sparrows and Allies"],"class":["769"],"trial_type":"image-multi-choice","trial_index":189,"time_elapsed":1489604,"internal_node_id":"0.0-1.0-188.0"},{"rt":5226,"responses":"{\"Q0\":\"White-crowned Sparrow\"}","bird":["American Tree Sparrow"],"family":["New World Sparrows and Allies"],"class":["894"],"trial_type":"image-multi-choice","trial_index":190,"time_elapsed":1495846,"internal_node_id":"0.0-1.0-189.0"},{"rt":7460,"responses":"{\"Q0\":\"Song Sparrow\"}","bird":["Vesper Sparrow"],"family":["New World Sparrows and Allies"],"class":["898"],"trial_type":"image-multi-choice","trial_index":191,"time_elapsed":1504319,"internal_node_id":"0.0-1.0-190.0"},{"rt":4771,"responses":"{\"Q0\":\"Orange-crowned Warbler\"}","bird":["Lincoln's Sparrow"],"family":["New World Sparrows and Allies"],"class":["903"],"trial_type":"image-multi-choice","trial_index":192,"time_elapsed":1510106,"internal_node_id":"0.0-1.0-191.0"},{"rt":8139,"responses":"{\"Q0\":\"White-throated Sparrow\"}","bird":["Tennessee Warbler"],"family":["Wood-Warblers"],"class":["866"],"trial_type":"image-multi-choice","trial_index":193,"time_elapsed":1519259,"internal_node_id":"0.0-1.0-192.0"},{"rt":4664,"responses":"{\"Q0\":\"White-crowned Sparrow\"}","bird":["American Tree Sparrow"],"family":["New World Sparrows and Allies"],"class":["894"],"trial_type":"image-multi-choice","trial_index":194,"time_elapsed":1524937,"internal_node_id":"0.0-1.0-193.0"},{"rt":3752,"responses":"{\"Q0\":\"White-throated Sparrow\"}","bird":["Lark Sparrow"],"family":["New World Sparrows and Allies"],"class":["899"],"trial_type":"image-multi-choice","trial_index":195,"time_elapsed":1529766,"internal_node_id":"0.0-1.0-194.0"},{"rt":3402,"responses":"{\"Q0\":\"Yellow Warbler\"}","bird":["Tennessee Warbler"],"family":["Wood-Warblers"],"class":["866"],"trial_type":"image-multi-choice","trial_index":196,"time_elapsed":1534184,"internal_node_id":"0.0-1.0-195.0"},{"rt":4682,"responses":"{\"Q0\":\"Northern Waterthrush\"}","bird":["Northern Waterthrush"],"family":["Wood-Warblers"],"class":["862"],"trial_type":"image-multi-choice","trial_index":197,"time_elapsed":1539882,"internal_node_id":"0.0-1.0-196.0"},{"rt":3350,"responses":"{\"Q0\":\"White-throated Sparrow\"}","bird":["White-throated Sparrow"],"family":["New World Sparrows and Allies"],"class":["764"],"trial_type":"image-multi-choice","trial_index":198,"time_elapsed":1544248,"internal_node_id":"0.0-1.0-197.0"},{"rt":2982,"responses":"{\"Q0\":\"Yellow Warbler\"}","bird":["Yellow Warbler"],"family":["Wood-Warblers"],"class":["875"],"trial_type":"image-multi-choice","trial_index":199,"time_elapsed":1548245,"internal_node_id":"0.0-1.0-198.0"},{"rt":3644,"responses":"{\"Q0\":\"White-crowned Sparrow\"}","bird":["White-crowned Sparrow"],"family":["New World Sparrows and Allies"],"class":["766"],"trial_type":"image-multi-choice","trial_index":200,"time_elapsed":1552902,"internal_node_id":"0.0-1.0-199.0"},{"rt":8460,"responses":"{\"Q0\":\"White-crowned Sparrow\"}","bird":["American Tree Sparrow"],"family":["New World Sparrows and Allies"],"class":["894"],"trial_type":"image-multi-choice","trial_index":201,"time_elapsed":1562378,"internal_node_id":"0.0-1.0-200.0"},{"rt":4637,"responses":"{\"Q0\":\"Tennessee Warbler\"}","bird":["Ovenbird"],"family":["Wood-Warblers"],"class":["860"],"trial_type":"image-multi-choice","trial_index":202,"time_elapsed":1568027,"internal_node_id":"0.0-1.0-201.0"},{"rt":4396,"responses":"{\"Q0\":\"Black-and-white Warbler\"}","bird":["Magnolia Warbler"],"family":["Wood-Warblers"],"class":["758"],"trial_type":"image-multi-choice","trial_index":203,"time_elapsed":1573436,"internal_node_id":"0.0-1.0-202.0"},{"rt":6080,"responses":"{\"Q0\":\"Tennessee Warbler\"}","bird":["Black-and-white Warbler"],"family":["Wood-Warblers"],"class":["864"],"trial_type":"image-multi-choice","trial_index":204,"time_elapsed":1580530,"internal_node_id":"0.0-1.0-203.0"},{"rt":4640,"responses":"{\"Q0\":\"Northern Waterthrush\"}","bird":["Northern Waterthrush"],"family":["Wood-Warblers"],"class":["862"],"trial_type":"image-multi-choice","trial_index":205,"time_elapsed":1586186,"internal_node_id":"0.0-1.0-204.0"},{"rt":6362,"responses":"{\"Q0\":\"Orange-crowned Warbler\"}","bird":["American Tree Sparrow"],"family":["New World Sparrows and Allies"],"class":["894"],"trial_type":"image-multi-choice","trial_index":206,"time_elapsed":1593563,"internal_node_id":"0.0-1.0-205.0"},{"rt":3584,"responses":"{\"Q0\":\"Black-and-white Warbler\"}","bird":["Magnolia Warbler"],"family":["Wood-Warblers"],"class":["758"],"trial_type":"image-multi-choice","trial_index":207,"time_elapsed":1598160,"internal_node_id":"0.0-1.0-206.0"},{"rt":10812,"responses":"{\"Q0\":\"Nashville Warbler\"}","bird":["Blackburnian Warbler"],"family":["Wood-Warblers"],"class":["874"],"trial_type":"image-multi-choice","trial_index":208,"time_elapsed":1609987,"internal_node_id":"0.0-1.0-207.0"},{"rt":4387,"responses":"{\"Q0\":\"White-crowned Sparrow\"}","bird":["Swamp Sparrow"],"family":["New World Sparrows and Allies"],"class":["904"],"trial_type":"image-multi-choice","trial_index":209,"time_elapsed":1615389,"internal_node_id":"0.0-1.0-208.0"},{"rt":4055,"responses":"{\"Q0\":\"White-crowned Sparrow\"}","bird":["American Tree Sparrow"],"family":["New World Sparrows and Allies"],"class":["894"],"trial_type":"image-multi-choice","trial_index":210,"time_elapsed":1620459,"internal_node_id":"0.0-1.0-209.0"},{"rt":3786,"responses":"{\"Q0\":\"Orange-crowned Warbler\"}","bird":["Ovenbird"],"family":["Wood-Warblers"],"class":["860"],"trial_type":"image-multi-choice","trial_index":211,"time_elapsed":1625281,"internal_node_id":"0.0-1.0-210.0"},{"rt":4547,"responses":"{\"Q0\":\"White-throated Sparrow\"}","bird":["Swamp Sparrow"],"family":["New World Sparrows and Allies"],"class":["904"],"trial_type":"image-multi-choice","trial_index":212,"time_elapsed":1630851,"internal_node_id":"0.0-1.0-211.0"},{"rt":4971,"responses":"{\"Q0\":\"Swamp Sparrow\"}","bird":["Song Sparrow"],"family":["New World Sparrows and Allies"],"class":["902"],"trial_type":"image-multi-choice","trial_index":213,"time_elapsed":1636838,"internal_node_id":"0.0-1.0-212.0"},{"rt":4179,"responses":"{\"Q0\":\"Black-and-white Warbler\"}","bird":["Blackburnian Warbler"],"family":["Wood-Warblers"],"class":["874"],"trial_type":"image-multi-choice","trial_index":214,"time_elapsed":1642033,"internal_node_id":"0.0-1.0-213.0"},{"rt":8078,"responses":"{\"Q0\":\"Nashville Warbler\"}","bird":["Vesper Sparrow"],"family":["New World Sparrows and Allies"],"class":["898"],"trial_type":"image-multi-choice","trial_index":215,"time_elapsed":1651127,"internal_node_id":"0.0-1.0-214.0"},{"rt":4468,"responses":"{\"Q0\":\"Black-and-white Warbler\"}","bird":["Blackburnian Warbler"],"family":["Wood-Warblers"],"class":["874"],"trial_type":"image-multi-choice","trial_index":216,"time_elapsed":1656614,"internal_node_id":"0.0-1.0-215.0"},{"rt":5729,"responses":"{\"Q0\":\"Song Sparrow\"}","bird":["Song Sparrow"],"family":["New World Sparrows and Allies"],"class":["902"],"trial_type":"image-multi-choice","trial_index":217,"time_elapsed":1663379,"internal_node_id":"0.0-1.0-216.0"},{"rt":6940,"responses":"{\"Q0\":\"Yellow Warbler\"}","bird":["Tennessee Warbler"],"family":["Wood-Warblers"],"class":["866"],"trial_type":"image-multi-choice","trial_index":218,"time_elapsed":1671351,"internal_node_id":"0.0-1.0-217.0"},{"rt":4210,"responses":"{\"Q0\":\"White-crowned Sparrow\"}","bird":["Black-and-white Warbler"],"family":["Wood-Warblers"],"class":["864"],"trial_type":"image-multi-choice","trial_index":219,"time_elapsed":1676585,"internal_node_id":"0.0-1.0-218.0"},{"rt":5523,"responses":"{\"Q0\":\"Northern Waterthrush\"}","bird":["Ovenbird"],"family":["Wood-Warblers"],"class":["860"],"trial_type":"image-multi-choice","trial_index":220,"time_elapsed":1683140,"internal_node_id":"0.0-1.0-219.0"},{"rt":3269,"responses":"{\"Q0\":\"White-throated Sparrow\"}","bird":["White-throated Sparrow"],"family":["New World Sparrows and Allies"],"class":["764"],"trial_type":"image-multi-choice","trial_index":221,"time_elapsed":1687427,"internal_node_id":"0.0-1.0-220.0"},{"rt":3786,"responses":"{\"Q0\":\"White-throated Sparrow\"}","bird":["Vesper Sparrow"],"family":["New World Sparrows and Allies"],"class":["898"],"trial_type":"image-multi-choice","trial_index":222,"time_elapsed":1692237,"internal_node_id":"0.0-1.0-221.0"},{"rt":17858,"responses":"{\"Q0\":\"White-throated Sparrow\"}","bird":["American Tree Sparrow"],"family":["New World Sparrows and Allies"],"class":["894"],"trial_type":"image-multi-choice","trial_index":223,"time_elapsed":1711112,"internal_node_id":"0.0-1.0-222.0"},{"rt":4707,"responses":"{\"Q0\":\"Yellow Warbler\"}","bird":["Yellow Warbler"],"family":["Wood-Warblers"],"class":["875"],"trial_type":"image-multi-choice","trial_index":224,"time_elapsed":1716844,"internal_node_id":"0.0-1.0-223.0"},{"rt":5585,"responses":"{\"Q0\":\"Northern Waterthrush\"}","bird":["Northern Waterthrush"],"family":["Wood-Warblers"],"class":["862"],"trial_type":"image-multi-choice","trial_index":225,"time_elapsed":1723444,"internal_node_id":"0.0-1.0-224.0"},{"rt":4614,"responses":"{\"Q0\":\"Black-and-white Warbler\"}","bird":["Blackburnian Warbler"],"family":["Wood-Warblers"],"class":["874"],"trial_type":"image-multi-choice","trial_index":226,"time_elapsed":1729074,"internal_node_id":"0.0-1.0-225.0"},{"rt":3301,"responses":"{\"Q0\":\"White-throated Sparrow\"}","bird":["White-throated Sparrow"],"family":["New World Sparrows and Allies"],"class":["764"],"trial_type":"image-multi-choice","trial_index":227,"time_elapsed":1733391,"internal_node_id":"0.0-1.0-226.0"},{"rt":6728,"responses":"{\"Q0\":\"Lark Sparrow\"}","bird":["Song Sparrow"],"family":["New World Sparrows and Allies"],"class":["902"],"trial_type":"image-multi-choice","trial_index":228,"time_elapsed":1741134,"internal_node_id":"0.0-1.0-227.0"},{"rt":5442,"responses":"{\"Q0\":\"Northern Waterthrush\"}","bird":["Ovenbird"],"family":["Wood-Warblers"],"class":["860"],"trial_type":"image-multi-choice","trial_index":229,"time_elapsed":1747593,"internal_node_id":"0.0-1.0-228.0"},{"rt":4759,"responses":"{\"Q0\":\"Black-and-white Warbler\"}","bird":["Townsend's Warbler"],"family":["Wood-Warblers"],"class":["881"],"trial_type":"image-multi-choice","trial_index":230,"time_elapsed":1753368,"internal_node_id":"0.0-1.0-229.0"},{"rt":6098,"responses":"{\"Q0\":\"Ovenbird\"}","bird":["Nashville Warbler"],"family":["Wood-Warblers"],"class":["868"],"trial_type":"image-multi-choice","trial_index":231,"time_elapsed":1760481,"internal_node_id":"0.0-1.0-230.0"},{"rt":6282,"responses":"{\"Q0\":\"Fox Sparrow\"}","bird":["Fox Sparrow"],"family":["New World Sparrows and Allies"],"class":["901"],"trial_type":"image-multi-choice","trial_index":232,"time_elapsed":1767777,"internal_node_id":"0.0-1.0-231.0"},{"rt":5458,"responses":"{\"Q0\":\"Orange-crowned Warbler\"}","bird":["Ovenbird"],"family":["Wood-Warblers"],"class":["860"],"trial_type":"image-multi-choice","trial_index":233,"time_elapsed":1774251,"internal_node_id":"0.0-1.0-232.0"},{"rt":5013,"responses":"{\"Q0\":\"Black-and-white Warbler\"}","bird":["Magnolia Warbler"],"family":["Wood-Warblers"],"class":["758"],"trial_type":"image-multi-choice","trial_index":234,"time_elapsed":1780278,"internal_node_id":"0.0-1.0-233.0"},{"rt":27301,"responses":"{\"Q0\":\"Song Sparrow\"}","bird":["American Tree Sparrow"],"family":["New World Sparrows and Allies"],"class":["894"],"trial_type":"image-multi-choice","trial_index":235,"time_elapsed":1808594,"internal_node_id":"0.0-1.0-234.0"},{"rt":4414,"responses":"{\"Q0\":\"Black-and-white Warbler\"}","bird":["Blackburnian Warbler"],"family":["Wood-Warblers"],"class":["874"],"trial_type":"image-multi-choice","trial_index":236,"time_elapsed":1814023,"internal_node_id":"0.0-1.0-235.0"},{"rt":5568,"responses":"{\"Q0\":\"White-throated Sparrow\"}","bird":["Chipping Sparrow"],"family":["New World Sparrows and Allies"],"class":["769"],"trial_type":"image-multi-choice","trial_index":237,"time_elapsed":1820607,"internal_node_id":"0.0-1.0-236.0"},{"rt":8522,"responses":"{\"Q0\":\"White-throated Sparrow\"}","bird":["Fox Sparrow"],"family":["New World Sparrows and Allies"],"class":["901"],"trial_type":"image-multi-choice","trial_index":238,"time_elapsed":1830328,"internal_node_id":"0.0-1.0-237.0"},{"rt":7459,"responses":"{\"Q0\":\"Lark Sparrow\"}","bird":["Vesper Sparrow"],"family":["New World Sparrows and Allies"],"class":["898"],"trial_type":"image-multi-choice","trial_index":239,"time_elapsed":1838801,"internal_node_id":"0.0-1.0-238.0"},{"rt":4707,"responses":"{\"Q0\":\"Northern Waterthrush\"}","bird":["Northern Waterthrush"],"family":["Wood-Warblers"],"class":["862"],"trial_type":"image-multi-choice","trial_index":240,"time_elapsed":1851741,"internal_node_id":"0.0-1.0-239.0"},{"rt":9352,"responses":"{\"Q0\":\"Northern Waterthrush\"}","bird":["Lark Sparrow"],"family":["New World Sparrows and Allies"],"class":["899"],"trial_type":"image-multi-choice","trial_index":241,"time_elapsed":1862114,"internal_node_id":"0.0-1.0-240.0"},{"rt":4797,"responses":"{\"Q0\":\"Ovenbird\"}","bird":["Nashville Warbler"],"family":["Wood-Warblers"],"class":["868"],"trial_type":"image-multi-choice","trial_index":242,"time_elapsed":1867929,"internal_node_id":"0.0-1.0-241.0"},{"rt":4468,"responses":"{\"Q0\":\"Northern Waterthrush\"}","bird":["Ovenbird"],"family":["Wood-Warblers"],"class":["860"],"trial_type":"image-multi-choice","trial_index":243,"time_elapsed":1873414,"internal_node_id":"0.0-1.0-242.0"},{"rt":4381,"responses":"{\"Q0\":\"White-crowned Sparrow\"}","bird":["Northern Waterthrush"],"family":["Wood-Warblers"],"class":["862"],"trial_type":"image-multi-choice","trial_index":244,"time_elapsed":1878817,"internal_node_id":"0.0-1.0-243.0"},{"rt":10080,"responses":"{\"Q0\":\"Yellow Warbler\"}","bird":["Orange-crowned Warbler"],"family":["Wood-Warblers"],"class":["867"],"trial_type":"image-multi-choice","trial_index":245,"time_elapsed":1889911,"internal_node_id":"0.0-1.0-244.0"},{"rt":4483,"responses":"{\"Q0\":\"Northern Waterthrush\"}","bird":["Chipping Sparrow"],"family":["New World Sparrows and Allies"],"class":["769"],"trial_type":"image-multi-choice","trial_index":246,"time_elapsed":1895412,"internal_node_id":"0.0-1.0-245.0"},{"rt":4653,"responses":"{\"Q0\":\"Orange-crowned Warbler\"}","bird":["Tennessee Warbler"],"family":["Wood-Warblers"],"class":["866"],"trial_type":"image-multi-choice","trial_index":247,"time_elapsed":1901079,"internal_node_id":"0.0-1.0-246.0"},{"rt":7067,"responses":"{\"Q0\":\"Northern Waterthrush\"}","bird":["Yellow Warbler"],"family":["Wood-Warblers"],"class":["875"],"trial_type":"image-multi-choice","trial_index":248,"time_elapsed":1909160,"internal_node_id":"0.0-1.0-247.0"},{"rt":5413,"responses":"{\"Q0\":\"Vesper Sparrow\"}","bird":["Lincoln's Sparrow"],"family":["New World Sparrows and Allies"],"class":["903"],"trial_type":"image-multi-choice","trial_index":249,"time_elapsed":1915589,"internal_node_id":"0.0-1.0-248.0"},{"rt":4781,"responses":"{\"Q0\":\"Lark Sparrow\"}","bird":["Vesper Sparrow"],"family":["New World Sparrows and Allies"],"class":["898"],"trial_type":"image-multi-choice","trial_index":250,"time_elapsed":1921385,"internal_node_id":"0.0-1.0-249.0"},{"rt":5841,"responses":"{\"Q0\":\"Nashville Warbler\"}","bird":["Black-and-white Warbler"],"family":["Wood-Warblers"],"class":["864"],"trial_type":"image-multi-choice","trial_index":251,"time_elapsed":1928242,"internal_node_id":"0.0-1.0-250.0"},{"rt":5198,"responses":"{\"Q0\":\"Lincoln's Sparrow\"}","bird":["Song Sparrow"],"family":["New World Sparrows and Allies"],"class":["902"],"trial_type":"image-multi-choice","trial_index":252,"time_elapsed":1934457,"internal_node_id":"0.0-1.0-251.0"},{"rt":4155,"responses":"{\"Q0\":\"White-crowned Sparrow\"}","bird":["Chipping Sparrow"],"family":["New World Sparrows and Allies"],"class":["769"],"trial_type":"image-multi-choice","trial_index":253,"time_elapsed":1939628,"internal_node_id":"0.0-1.0-252.0"},{"rt":6102,"responses":"{\"Q0\":\"White-crowned Sparrow\"}","bird":["Magnolia Warbler"],"family":["Wood-Warblers"],"class":["758"],"trial_type":"image-multi-choice","trial_index":254,"time_elapsed":1946744,"internal_node_id":"0.0-1.0-253.0"},{"rt":3829,"responses":"{\"Q0\":\"White-throated Sparrow\"}","bird":["Lincoln's Sparrow"],"family":["New World Sparrows and Allies"],"class":["903"],"trial_type":"image-multi-choice","trial_index":255,"time_elapsed":1951587,"internal_node_id":"0.0-1.0-254.0"},{"rt":2974,"responses":"{\"Q0\":\"White-throated Sparrow\"}","bird":["White-throated Sparrow"],"family":["New World Sparrows and Allies"],"class":["764"],"trial_type":"image-multi-choice","trial_index":256,"time_elapsed":1955577,"internal_node_id":"0.0-1.0-255.0"},{"rt":4901,"responses":"{\"Q0\":\"Nashville Warbler\"}","bird":["Fox Sparrow"],"family":["New World Sparrows and Allies"],"class":["901"],"trial_type":"image-multi-choice","trial_index":257,"time_elapsed":1961493,"internal_node_id":"0.0-1.0-256.0"},{"rt":4381,"responses":"{\"Q0\":\"Blackburnian Warbler\"}","bird":["Black-and-white Warbler"],"family":["Wood-Warblers"],"class":["864"],"trial_type":"image-multi-choice","trial_index":258,"time_elapsed":1966889,"internal_node_id":"0.0-1.0-257.0"},{"rt":8394,"responses":"{\"Q0\":\"Northern Waterthrush\"}","bird":["Chipping Sparrow"],"family":["New World Sparrows and Allies"],"class":["769"],"trial_type":"image-multi-choice","trial_index":259,"time_elapsed":1976299,"internal_node_id":"0.0-1.0-258.0"},{"rt":4608,"responses":"{\"Q0\":\"Yellow Warbler\"}","bird":["Orange-crowned Warbler"],"family":["Wood-Warblers"],"class":["867"],"trial_type":"image-multi-choice","trial_index":260,"time_elapsed":1981926,"internal_node_id":"0.0-1.0-259.0"},{"rt":4871,"responses":"{\"Q0\":\"Northern Waterthrush\"}","bird":["Lark Sparrow"],"family":["New World Sparrows and Allies"],"class":["899"],"trial_type":"image-multi-choice","trial_index":261,"time_elapsed":1987811,"internal_node_id":"0.0-1.0-260.0"},{"rt":5377,"responses":"{\"Q0\":\"White-throated Sparrow\"}","bird":["Lincoln's Sparrow"],"family":["New World Sparrows and Allies"],"class":["903"],"trial_type":"image-multi-choice","trial_index":262,"time_elapsed":1994206,"internal_node_id":"0.0-1.0-261.0"},{"rt":4844,"responses":"{\"Q0\":\"Northern Waterthrush\"}","bird":["Northern Waterthrush"],"family":["Wood-Warblers"],"class":["862"],"trial_type":"image-multi-choice","trial_index":263,"time_elapsed":2000066,"internal_node_id":"0.0-1.0-262.0"},{"rt":4359,"responses":"{\"Q0\":\"Yellow Warbler\"}","bird":["Nashville Warbler"],"family":["Wood-Warblers"],"class":["868"],"trial_type":"image-multi-choice","trial_index":264,"time_elapsed":2005441,"internal_node_id":"0.0-1.0-263.0"},{"rt":5336,"responses":"{\"Q0\":\"Black-and-white Warbler\"}","bird":["Lark Sparrow"],"family":["New World Sparrows and Allies"],"class":["899"],"trial_type":"image-multi-choice","trial_index":265,"time_elapsed":2011794,"internal_node_id":"0.0-1.0-264.0"},{"rt":3899,"responses":"{\"Q0\":\"Yellow Warbler\"}","bird":["Orange-crowned Warbler"],"family":["Wood-Warblers"],"class":["867"],"trial_type":"image-multi-choice","trial_index":266,"time_elapsed":2016709,"internal_node_id":"0.0-1.0-265.0"},{"rt":3562,"responses":"{\"Q0\":\"Black-and-white Warbler\"}","bird":["Magnolia Warbler"],"family":["Wood-Warblers"],"class":["758"],"trial_type":"image-multi-choice","trial_index":267,"time_elapsed":2021287,"internal_node_id":"0.0-1.0-266.0"},{"rt":4511,"responses":"{\"Q0\":\"Yellow Warbler\"}","bird":["Orange-crowned Warbler"],"family":["Wood-Warblers"],"class":["867"],"trial_type":"image-multi-choice","trial_index":268,"time_elapsed":2026831,"internal_node_id":"0.0-1.0-267.0"},{"rt":2972,"responses":"{\"Q0\":\"Yellow Warbler\"}","bird":["Yellow Warbler"],"family":["Wood-Warblers"],"class":["875"],"trial_type":"image-multi-choice","trial_index":269,"time_elapsed":2030818,"internal_node_id":"0.0-1.0-268.0"},{"rt":5555,"responses":"{\"Q0\":\"Blackburnian Warbler\"}","bird":["Orange-crowned Warbler"],"family":["Wood-Warblers"],"class":["867"],"trial_type":"image-multi-choice","trial_index":270,"time_elapsed":2037388,"internal_node_id":"0.0-1.0-269.0"},{"rt":8595,"responses":"{\"Q0\":\"Orange-crowned Warbler\"}","bird":["Lincoln's Sparrow"],"family":["New World Sparrows and Allies"],"class":["903"],"trial_type":"image-multi-choice","trial_index":271,"time_elapsed":2046998,"internal_node_id":"0.0-1.0-270.0"},{"rt":7742,"responses":"{\"Q0\":\"Northern Waterthrush\"}","bird":["Lark Sparrow"],"family":["New World Sparrows and Allies"],"class":["899"],"trial_type":"image-multi-choice","trial_index":272,"time_elapsed":2055754,"internal_node_id":"0.0-1.0-271.0"},{"rt":3555,"responses":"{\"Q0\":\"Orange-crowned Warbler\"}","bird":["Lincoln's Sparrow"],"family":["New World Sparrows and Allies"],"class":["903"],"trial_type":"image-multi-choice","trial_index":273,"time_elapsed":2060337,"internal_node_id":"0.0-1.0-272.0"},{"rt":9075,"responses":"{\"Q0\":\"Orange-crowned Warbler\"}","bird":["Nashville Warbler"],"family":["Wood-Warblers"],"class":["868"],"trial_type":"image-multi-choice","trial_index":274,"time_elapsed":2070432,"internal_node_id":"0.0-1.0-273.0"},{"rt":3825,"responses":"{\"Q0\":\"Black-and-white Warbler\"}","bird":["Lark Sparrow"],"family":["New World Sparrows and Allies"],"class":["899"],"trial_type":"image-multi-choice","trial_index":275,"time_elapsed":2075276,"internal_node_id":"0.0-1.0-274.0"},{"rt":3352,"responses":"{\"Q0\":\"White-throated Sparrow\"}","bird":["Chipping Sparrow"],"family":["New World Sparrows and Allies"],"class":["769"],"trial_type":"image-multi-choice","trial_index":276,"time_elapsed":2079643,"internal_node_id":"0.0-1.0-275.0"},{"rt":2656,"responses":"{\"Q0\":\"White-throated Sparrow\"}","bird":["White-throated Sparrow"],"family":["New World Sparrows and Allies"],"class":["764"],"trial_type":"image-multi-choice","trial_index":277,"time_elapsed":2083313,"internal_node_id":"0.0-1.0-276.0"},{"rt":3302,"responses":"{\"Q0\":\"White-crowned Sparrow\"}","bird":["Song Sparrow"],"family":["New World Sparrows and Allies"],"class":["902"],"trial_type":"image-multi-choice","trial_index":278,"time_elapsed":2087631,"internal_node_id":"0.0-1.0-277.0"},{"rt":5133,"responses":"{\"Q0\":\"White-crowned Sparrow\"}","bird":["Ovenbird"],"family":["Wood-Warblers"],"class":["860"],"trial_type":"image-multi-choice","trial_index":279,"time_elapsed":2093779,"internal_node_id":"0.0-1.0-278.0"},{"rt":7178,"responses":"{\"Q0\":\"Blackburnian Warbler\"}","bird":["Lark Sparrow"],"family":["New World Sparrows and Allies"],"class":["899"],"trial_type":"image-multi-choice","trial_index":280,"time_elapsed":2101970,"internal_node_id":"0.0-1.0-279.0"},{"rt":4754,"responses":"{\"Q0\":\"American Tree Sparrow\"}","bird":["Chipping Sparrow"],"family":["New World Sparrows and Allies"],"class":["769"],"trial_type":"image-multi-choice","trial_index":281,"time_elapsed":2107738,"internal_node_id":"0.0-1.0-280.0"},{"rt":10053,"responses":"{\"Q0\":\"Vesper Sparrow\"}","bird":["Lark Sparrow"],"family":["New World Sparrows and Allies"],"class":["899"],"trial_type":"image-multi-choice","trial_index":282,"time_elapsed":2118807,"internal_node_id":"0.0-1.0-281.0"},{"rt":6079,"responses":"{\"Q0\":\"Swamp Sparrow\"}","bird":["Song Sparrow"],"family":["New World Sparrows and Allies"],"class":["902"],"trial_type":"image-multi-choice","trial_index":283,"time_elapsed":2125902,"internal_node_id":"0.0-1.0-282.0"},{"rt":3179,"responses":"{\"Q0\":\"White-throated Sparrow\"}","bird":["White-throated Sparrow"],"family":["New World Sparrows and Allies"],"class":["764"],"trial_type":"image-multi-choice","trial_index":284,"time_elapsed":2130097,"internal_node_id":"0.0-1.0-283.0"},{"rt":4114,"responses":"{\"Q0\":\"Black-and-white Warbler\"}","bird":["Magnolia Warbler"],"family":["Wood-Warblers"],"class":["758"],"trial_type":"image-multi-choice","trial_index":285,"time_elapsed":2135226,"internal_node_id":"0.0-1.0-284.0"},{"rt":5954,"responses":"{\"Q0\":\"Ovenbird\"}","bird":["Orange-crowned Warbler"],"family":["Wood-Warblers"],"class":["867"],"trial_type":"image-multi-choice","trial_index":286,"time_elapsed":2142195,"internal_node_id":"0.0-1.0-285.0"},{"rt":3748,"responses":"{\"Q0\":\"Orange-crowned Warbler\"}","bird":["Lincoln's Sparrow"],"family":["New World Sparrows and Allies"],"class":["903"],"trial_type":"image-multi-choice","trial_index":287,"time_elapsed":2146956,"internal_node_id":"0.0-1.0-286.0"},{"rt":3940,"responses":"{\"Q0\":\"White-crowned Sparrow\"}","bird":["Lark Sparrow"],"family":["New World Sparrows and Allies"],"class":["899"],"trial_type":"image-multi-choice","trial_index":288,"time_elapsed":2151913,"internal_node_id":"0.0-1.0-287.0"},{"rt":5345,"responses":"{\"Q0\":\"Nashville Warbler\"}","bird":["Townsend's Warbler"],"family":["Wood-Warblers"],"class":["881"],"trial_type":"image-multi-choice","trial_index":289,"time_elapsed":2158273,"internal_node_id":"0.0-1.0-288.0"},{"rt":3981,"responses":"{\"Q0\":\"Black-and-white Warbler\"}","bird":["Black-and-white Warbler"],"family":["Wood-Warblers"],"class":["864"],"trial_type":"image-multi-choice","trial_index":290,"time_elapsed":2163272,"internal_node_id":"0.0-1.0-289.0"},{"rt":3427,"responses":"{\"Q0\":\"Yellow Warbler\"}","bird":["Tennessee Warbler"],"family":["Wood-Warblers"],"class":["866"],"trial_type":"image-multi-choice","trial_index":291,"time_elapsed":2167715,"internal_node_id":"0.0-1.0-290.0"},{"rt":4552,"responses":"{\"Q0\":\"White-crowned Sparrow\"}","bird":["American Tree Sparrow"],"family":["New World Sparrows and Allies"],"class":["894"],"trial_type":"image-multi-choice","trial_index":292,"time_elapsed":2173281,"internal_node_id":"0.0-1.0-291.0"},{"rt":5997,"responses":"{\"Q0\":\"Song Sparrow\"}","bird":["Chipping Sparrow"],"family":["New World Sparrows and Allies"],"class":["769"],"trial_type":"image-multi-choice","trial_index":293,"time_elapsed":2180294,"internal_node_id":"0.0-1.0-292.0"},{"rt":5356,"responses":"{\"Q0\":\"Black-and-white Warbler\"}","bird":["Lark Sparrow"],"family":["New World Sparrows and Allies"],"class":["899"],"trial_type":"image-multi-choice","trial_index":294,"time_elapsed":2186666,"internal_node_id":"0.0-1.0-293.0"},{"rt":11128,"responses":"{\"Q0\":\"Black-and-white Warbler\"}","bird":["Magnolia Warbler"],"family":["Wood-Warblers"],"class":["758"],"trial_type":"image-multi-choice","trial_index":295,"time_elapsed":2198809,"internal_node_id":"0.0-1.0-294.0"},{"rt":6024,"responses":"{\"Q0\":\"Blackburnian Warbler\"}","bird":["Yellow Warbler"],"family":["Wood-Warblers"],"class":["875"],"trial_type":"image-multi-choice","trial_index":296,"time_elapsed":2205849,"internal_node_id":"0.0-1.0-295.0"},{"rt":3612,"responses":"{\"Q0\":\"White-crowned Sparrow\"}","bird":["White-crowned Sparrow"],"family":["New World Sparrows and Allies"],"class":["766"],"trial_type":"image-multi-choice","trial_index":297,"time_elapsed":2210475,"internal_node_id":"0.0-1.0-296.0"},{"rt":5356,"responses":"{\"Q0\":\"Song Sparrow\"}","bird":["Swamp Sparrow"],"family":["New World Sparrows and Allies"],"class":["904"],"trial_type":"image-multi-choice","trial_index":298,"time_elapsed":2216845,"internal_node_id":"0.0-1.0-297.0"},{"rt":4498,"responses":"{\"Q0\":\"Orange-crowned Warbler\"}","bird":["Orange-crowned Warbler"],"family":["Wood-Warblers"],"class":["867"],"trial_type":"image-multi-choice","trial_index":299,"time_elapsed":2222357,"internal_node_id":"0.0-1.0-298.0"},{"rt":4234,"responses":"{\"Q0\":\"Lark Sparrow\"}","bird":["Vesper Sparrow"],"family":["New World Sparrows and Allies"],"class":["898"],"trial_type":"image-multi-choice","trial_index":300,"time_elapsed":2243937,"internal_node_id":"0.0-1.0-299.0"},{"view_history":"[{\"page_index\":0,\"viewing_time\":1848}]","rt":1849,"trial_type":"instructions","trial_index":301,"time_elapsed":2246787,"internal_node_id":"0.0-2.0"}]