"view_history","rt","trial_type","trial_index","time_elapsed","internal_node_id","responses","bird","family","class"
"[{""page_index"":0,""viewing_time"":16975}]","16977","instructions","0","16978","0.0-0.0","","","",""
"","14206","image-multi-choice","1","32226","0.0-1.0-0.0","{""Q0"":""American Tree Sparrow""}","American Tree Sparrow","New World Sparrows and Allies","894"
"","10742","image-multi-choice","2","44001","0.0-1.0-1.0","{""Q0"":""Northern Waterthrush""}","Tennessee Warbler","Wood-Warblers","866"
"","8477","image-multi-choice","3","53504","0.0-1.0-2.0","{""Q0"":""Fox Sparrow""}","White-crowned Sparrow","New World Sparrows and Allies","766"
"","7794","image-multi-choice","4","62330","0.0-1.0-3.0","{""Q0"":""Lark Sparrow""}","American Tree Sparrow","New World Sparrows and Allies","894"
"","9740","image-multi-choice","5","73089","0.0-1.0-4.0","{""Q0"":""Chipping Sparrow""}","White-crowned Sparrow","New World Sparrows and Allies","766"
"","11033","image-multi-choice","6","85153","0.0-1.0-5.0","{""Q0"":""Tennessee Warbler""}","Townsend's Warbler","Wood-Warblers","881"
"","5594","image-multi-choice","7","91776","0.0-1.0-6.0","{""Q0"":""Song Sparrow""}","Vesper Sparrow","New World Sparrows and Allies","898"
"","25374","image-multi-choice","8","118179","0.0-1.0-7.0","{""Q0"":""Orange-crowned Warbler""}","Nashville Warbler","Wood-Warblers","868"
"","10731","image-multi-choice","9","129933","0.0-1.0-8.0","{""Q0"":""Black-and-white Warbler""}","Northern Waterthrush","Wood-Warblers","862"
"","8376","image-multi-choice","10","139329","0.0-1.0-9.0","{""Q0"":""Yellow Warbler""}","Ovenbird","Wood-Warblers","860"
"","23843","image-multi-choice","11","164204","0.0-1.0-10.0","{""Q0"":""Blackburnian Warbler""}","Lincoln's Sparrow","New World Sparrows and Allies","903"
"","9457","image-multi-choice","12","174685","0.0-1.0-11.0","{""Q0"":""Orange-crowned Warbler""}","Townsend's Warbler","Wood-Warblers","881"
"","8195","image-multi-choice","13","183898","0.0-1.0-12.0","{""Q0"":""Vesper Sparrow""}","Fox Sparrow","New World Sparrows and Allies","901"
"","6261","image-multi-choice","14","191179","0.0-1.0-13.0","{""Q0"":""Magnolia Warbler""}","Blackburnian Warbler","Wood-Warblers","874"
"","7129","image-multi-choice","15","199327","0.0-1.0-14.0","{""Q0"":""Swamp Sparrow""}","Vesper Sparrow","New World Sparrows and Allies","898"
"","7542","image-multi-choice","16","208056","0.0-1.0-15.0","{""Q0"":""Black-and-white Warbler""}","Black-and-white Warbler","Wood-Warblers","864"
"","16700","image-multi-choice","17","225774","0.0-1.0-16.0","{""Q0"":""Nashville Warbler""}","Nashville Warbler","Wood-Warblers","868"
"","8626","image-multi-choice","18","235417","0.0-1.0-17.0","{""Q0"":""Tennessee Warbler""}","Lincoln's Sparrow","New World Sparrows and Allies","903"
"","12760","image-multi-choice","19","249194","0.0-1.0-18.0","{""Q0"":""Magnolia Warbler""}","Nashville Warbler","Wood-Warblers","868"
"","12766","image-multi-choice","20","262972","0.0-1.0-19.0","{""Q0"":""Song Sparrow""}","Lark Sparrow","New World Sparrows and Allies","899"
"","17343","image-multi-choice","21","281330","0.0-1.0-20.0","{""Q0"":""Blackburnian Warbler""}","Magnolia Warbler","Wood-Warblers","758"
"","11716","image-multi-choice","22","294059","0.0-1.0-21.0","{""Q0"":""Magnolia Warbler""}","Townsend's Warbler","Wood-Warblers","881"
"","8276","image-multi-choice","23","303349","0.0-1.0-22.0","{""Q0"":""White-crowned Sparrow""}","Swamp Sparrow","New World Sparrows and Allies","904"
"","5891","image-multi-choice","24","310251","0.0-1.0-23.0","{""Q0"":""Yellow Warbler""}","Tennessee Warbler","Wood-Warblers","866"
"","8535","image-multi-choice","25","319801","0.0-1.0-24.0","{""Q0"":""Townsend's Warbler""}","Ovenbird","Wood-Warblers","860"
"","6699","image-multi-choice","26","327515","0.0-1.0-25.0","{""Q0"":""White-throated Sparrow""}","White-crowned Sparrow","New World Sparrows and Allies","766"
"","6454","image-multi-choice","27","334983","0.0-1.0-26.0","{""Q0"":""Swamp Sparrow""}","Vesper Sparrow","New World Sparrows and Allies","898"
"","7065","image-multi-choice","28","343065","0.0-1.0-27.0","{""Q0"":""Ovenbird""}","Orange-crowned Warbler","Wood-Warblers","867"
"","8139","image-multi-choice","29","352219","0.0-1.0-28.0","{""Q0"":""Vesper Sparrow""}","American Tree Sparrow","New World Sparrows and Allies","894"
"","6508","image-multi-choice","30","359741","0.0-1.0-29.0","{""Q0"":""Orange-crowned Warbler""}","Tennessee Warbler","Wood-Warblers","866"
"","6250","image-multi-choice","31","367009","0.0-1.0-30.0","{""Q0"":""White-crowned Sparrow""}","Magnolia Warbler","Wood-Warblers","758"
"","6905","image-multi-choice","32","374929","0.0-1.0-31.0","{""Q0"":""Blackburnian Warbler""}","Blackburnian Warbler","Wood-Warblers","874"
"","5553","image-multi-choice","33","381496","0.0-1.0-32.0","{""Q0"":""Northern Waterthrush""}","Tennessee Warbler","Wood-Warblers","866"
"","10254","image-multi-choice","34","392767","0.0-1.0-33.0","{""Q0"":""Song Sparrow""}","Vesper Sparrow","New World Sparrows and Allies","898"
"","6440","image-multi-choice","35","400223","0.0-1.0-34.0","{""Q0"":""Northern Waterthrush""}","Orange-crowned Warbler","Wood-Warblers","867"
"","5685","image-multi-choice","36","406922","0.0-1.0-35.0","{""Q0"":""White-crowned Sparrow""}","White-crowned Sparrow","New World Sparrows and Allies","766"
"","4870","image-multi-choice","37","413000","0.0-1.0-36.0","{""Q0"":""Northern Waterthrush""}","Fox Sparrow","New World Sparrows and Allies","901"
"","7268","image-multi-choice","38","421282","0.0-1.0-37.0","{""Q0"":""Orange-crowned Warbler""}","Swamp Sparrow","New World Sparrows and Allies","904"
"","7048","image-multi-choice","39","429346","0.0-1.0-38.0","{""Q0"":""Yellow Warbler""}","Yellow Warbler","Wood-Warblers","875"
"","8306","image-multi-choice","40","438668","0.0-1.0-39.0","{""Q0"":""Black-and-white Warbler""}","Black-and-white Warbler","Wood-Warblers","864"
"","8439","image-multi-choice","41","448119","0.0-1.0-40.0","{""Q0"":""Black-and-white Warbler""}","Fox Sparrow","New World Sparrows and Allies","901"
"","5644","image-multi-choice","42","454776","0.0-1.0-41.0","{""Q0"":""Northern Waterthrush""}","Northern Waterthrush","Wood-Warblers","862"
"","4318","image-multi-choice","43","460108","0.0-1.0-42.0","{""Q0"":""Yellow Warbler""}","Nashville Warbler","Wood-Warblers","868"
"","4101","image-multi-choice","44","465225","0.0-1.0-43.0","{""Q0"":""Black-and-white Warbler""}","Blackburnian Warbler","Wood-Warblers","874"
"","5898","image-multi-choice","45","472139","0.0-1.0-44.0","{""Q0"":""Ovenbird""}","Orange-crowned Warbler","Wood-Warblers","867"
"","5984","image-multi-choice","46","479137","0.0-1.0-45.0","{""Q0"":""White-throated Sparrow""}","Blackburnian Warbler","Wood-Warblers","874"
"","16419","image-multi-choice","47","496572","0.0-1.0-46.0","{""Q0"":""Tennessee Warbler""}","Nashville Warbler","Wood-Warblers","868"
"","8854","image-multi-choice","48","506439","0.0-1.0-47.0","{""Q0"":""Magnolia Warbler""}","Northern Waterthrush","Wood-Warblers","862"
"","7132","image-multi-choice","49","514584","0.0-1.0-48.0","{""Q0"":""Vesper Sparrow""}","Fox Sparrow","New World Sparrows and Allies","901"
"","5564","image-multi-choice","50","521162","0.0-1.0-49.0","{""Q0"":""Song Sparrow""}","Swamp Sparrow","New World Sparrows and Allies","904"
"","12474","image-multi-choice","51","534650","0.0-1.0-50.0","{""Q0"":""Blackburnian Warbler""}","Nashville Warbler","Wood-Warblers","868"
"","5339","image-multi-choice","52","541002","0.0-1.0-51.0","{""Q0"":""Black-and-white Warbler""}","Black-and-white Warbler","Wood-Warblers","864"
"","6737","image-multi-choice","53","548751","0.0-1.0-52.0","{""Q0"":""Swamp Sparrow""}","American Tree Sparrow","New World Sparrows and Allies","894"
"","9847","image-multi-choice","54","559614","0.0-1.0-53.0","{""Q0"":""Ovenbird""}","Black-and-white Warbler","Wood-Warblers","864"
"","5735","image-multi-choice","55","566366","0.0-1.0-54.0","{""Q0"":""White-crowned Sparrow""}","Townsend's Warbler","Wood-Warblers","881"
"","8248","image-multi-choice","56","575630","0.0-1.0-55.0","{""Q0"":""Black-and-white Warbler""}","Lark Sparrow","New World Sparrows and Allies","899"
"","5475","image-multi-choice","57","582139","0.0-1.0-56.0","{""Q0"":""Northern Waterthrush""}","Ovenbird","Wood-Warblers","860"
"","4906","image-multi-choice","58","588059","0.0-1.0-57.0","{""Q0"":""Song Sparrow""}","Song Sparrow","New World Sparrows and Allies","902"
"","7198","image-multi-choice","59","596507","0.0-1.0-58.0","{""Q0"":""Fox Sparrow""}","Chipping Sparrow","New World Sparrows and Allies","769"
"","5757","image-multi-choice","60","614227","0.0-1.0-59.0","{""Q0"":""Blackburnian Warbler""}","Black-and-white Warbler","Wood-Warblers","864"
"","9888","image-multi-choice","61","625141","0.0-1.0-60.0","{""Q0"":""Chipping Sparrow""}","Chipping Sparrow","New World Sparrows and Allies","769"
"","7837","image-multi-choice","62","634005","0.0-1.0-61.0","{""Q0"":""Swamp Sparrow""}","Swamp Sparrow","New World Sparrows and Allies","904"
"","4920","image-multi-choice","63","639946","0.0-1.0-62.0","{""Q0"":""Ovenbird""}","Nashville Warbler","Wood-Warblers","868"
"","5883","image-multi-choice","64","646846","0.0-1.0-63.0","{""Q0"":""Orange-crowned Warbler""}","Lincoln's Sparrow","New World Sparrows and Allies","903"
"","6776","image-multi-choice","65","654640","0.0-1.0-64.0","{""Q0"":""Blackburnian Warbler""}","Black-and-white Warbler","Wood-Warblers","864"
"","7523","image-multi-choice","66","663179","0.0-1.0-65.0","{""Q0"":""Swamp Sparrow""}","Fox Sparrow","New World Sparrows and Allies","901"
"","7043","image-multi-choice","67","671236","0.0-1.0-66.0","{""Q0"":""Lincoln's Sparrow""}","Townsend's Warbler","Wood-Warblers","881"
"","4059","image-multi-choice","68","676310","0.0-1.0-67.0","{""Q0"":""Yellow Warbler""}","Yellow Warbler","Wood-Warblers","875"
"","11669","image-multi-choice","69","688993","0.0-1.0-68.0","{""Q0"":""Nashville Warbler""}","Tennessee Warbler","Wood-Warblers","866"
"","6523","image-multi-choice","70","696530","0.0-1.0-69.0","{""Q0"":""Northern Waterthrush""}","Ovenbird","Wood-Warblers","860"
"","6083","image-multi-choice","71","703627","0.0-1.0-70.0","{""Q0"":""Blackburnian Warbler""}","Townsend's Warbler","Wood-Warblers","881"
"","6066","image-multi-choice","72","710957","0.0-1.0-71.0","{""Q0"":""Black-and-white Warbler""}","Black-and-white Warbler","Wood-Warblers","864"
"","5620","image-multi-choice","73","717594","0.0-1.0-72.0","{""Q0"":""White-crowned Sparrow""}","Song Sparrow","New World Sparrows and Allies","902"
"","5026","image-multi-choice","74","723636","0.0-1.0-73.0","{""Q0"":""Northern Waterthrush""}","Northern Waterthrush","Wood-Warblers","862"
"","4851","image-multi-choice","75","729503","0.0-1.0-74.0","{""Q0"":""Vesper Sparrow""}","Swamp Sparrow","New World Sparrows and Allies","904"
"","5061","image-multi-choice","76","735578","0.0-1.0-75.0","{""Q0"":""White-crowned Sparrow""}","White-crowned Sparrow","New World Sparrows and Allies","766"
"","3604","image-multi-choice","77","740196","0.0-1.0-76.0","{""Q0"":""White-throated Sparrow""}","White-throated Sparrow","New World Sparrows and Allies","764"
"","6484","image-multi-choice","78","747696","0.0-1.0-77.0","{""Q0"":""Magnolia Warbler""}","Townsend's Warbler","Wood-Warblers","881"
"","4149","image-multi-choice","79","752861","0.0-1.0-78.0","{""Q0"":""Song Sparrow""}","Vesper Sparrow","New World Sparrows and Allies","898"
"","7580","image-multi-choice","80","761453","0.0-1.0-79.0","{""Q0"":""Lincoln's Sparrow""}","White-throated Sparrow","New World Sparrows and Allies","764"
"","5912","image-multi-choice","81","768379","0.0-1.0-80.0","{""Q0"":""Townsend's Warbler""}","Northern Waterthrush","Wood-Warblers","862"
"","4732","image-multi-choice","82","774129","0.0-1.0-81.0","{""Q0"":""Yellow Warbler""}","Yellow Warbler","Wood-Warblers","875"
"","3950","image-multi-choice","83","779099","0.0-1.0-82.0","{""Q0"":""Yellow Warbler""}","Nashville Warbler","Wood-Warblers","868"
"","6343","image-multi-choice","84","786459","0.0-1.0-83.0","{""Q0"":""Lincoln's Sparrow""}","Lark Sparrow","New World Sparrows and Allies","899"
"","4808","image-multi-choice","85","792279","0.0-1.0-84.0","{""Q0"":""Ovenbird""}","Orange-crowned Warbler","Wood-Warblers","867"
"","5695","image-multi-choice","86","798986","0.0-1.0-85.0","{""Q0"":""Yellow Warbler""}","Nashville Warbler","Wood-Warblers","868"
"","5669","image-multi-choice","87","805952","0.0-1.0-86.0","{""Q0"":""Black-and-white Warbler""}","Black-and-white Warbler","Wood-Warblers","864"
"","3580","image-multi-choice","88","810546","0.0-1.0-87.0","{""Q0"":""Yellow Warbler""}","Nashville Warbler","Wood-Warblers","868"
"","4386","image-multi-choice","89","815948","0.0-1.0-88.0","{""Q0"":""Northern Waterthrush""}","Ovenbird","Wood-Warblers","860"
"","6673","image-multi-choice","90","823636","0.0-1.0-89.0","{""Q0"":""Orange-crowned Warbler""}","Black-and-white Warbler","Wood-Warblers","864"
"","5932","image-multi-choice","91","830583","0.0-1.0-90.0","{""Q0"":""White-throated Sparrow""}","Chipping Sparrow","New World Sparrows and Allies","769"
"","4081","image-multi-choice","92","835678","0.0-1.0-91.0","{""Q0"":""Yellow Warbler""}","Tennessee Warbler","Wood-Warblers","866"
"","6081","image-multi-choice","93","842775","0.0-1.0-92.0","{""Q0"":""Vesper Sparrow""}","White-throated Sparrow","New World Sparrows and Allies","764"
"","6509","image-multi-choice","94","850300","0.0-1.0-93.0","{""Q0"":""Blackburnian Warbler""}","Song Sparrow","New World Sparrows and Allies","902"
"","4483","image-multi-choice","95","855798","0.0-1.0-94.0","{""Q0"":""Black-and-white Warbler""}","Blackburnian Warbler","Wood-Warblers","874"
"","5548","image-multi-choice","96","862361","0.0-1.0-95.0","{""Q0"":""White-crowned Sparrow""}","American Tree Sparrow","New World Sparrows and Allies","894"
"","3483","image-multi-choice","97","866861","0.0-1.0-96.0","{""Q0"":""White-throated Sparrow""}","White-throated Sparrow","New World Sparrows and Allies","764"
"","6871","image-multi-choice","98","874748","0.0-1.0-97.0","{""Q0"":""Ovenbird""}","Orange-crowned Warbler","Wood-Warblers","867"
"","3769","image-multi-choice","99","879532","0.0-1.0-98.0","{""Q0"":""Yellow Warbler""}","Yellow Warbler","Wood-Warblers","875"
"","8133","image-multi-choice","100","888684","0.0-1.0-99.0","{""Q0"":""Orange-crowned Warbler""}","Fox Sparrow","New World Sparrows and Allies","901"
"","6198","image-multi-choice","101","895897","0.0-1.0-100.0","{""Q0"":""Chipping Sparrow""}","Chipping Sparrow","New World Sparrows and Allies","769"
"","4920","image-multi-choice","102","901835","0.0-1.0-101.0","{""Q0"":""Northern Waterthrush""}","Northern Waterthrush","Wood-Warblers","862"
"","6404","image-multi-choice","103","909255","0.0-1.0-102.0","{""Q0"":""Vesper Sparrow""}","Swamp Sparrow","New World Sparrows and Allies","904"
"","4278","image-multi-choice","104","914552","0.0-1.0-103.0","{""Q0"":""Northern Waterthrush""}","Northern Waterthrush","Wood-Warblers","862"
"","3200","image-multi-choice","105","918769","0.0-1.0-104.0","{""Q0"":""Yellow Warbler""}","Yellow Warbler","Wood-Warblers","875"
"","4135","image-multi-choice","106","923921","0.0-1.0-105.0","{""Q0"":""Black-and-white Warbler""}","Magnolia Warbler","Wood-Warblers","758"
"","4534","image-multi-choice","107","929469","0.0-1.0-106.0","{""Q0"":""Black-and-white Warbler""}","Townsend's Warbler","Wood-Warblers","881"
"","3530","image-multi-choice","108","934015","0.0-1.0-107.0","{""Q0"":""White-throated Sparrow""}","Swamp Sparrow","New World Sparrows and Allies","904"
"","4599","image-multi-choice","109","939629","0.0-1.0-108.0","{""Q0"":""Northern Waterthrush""}","Fox Sparrow","New World Sparrows and Allies","901"
"","3008","image-multi-choice","110","943653","0.0-1.0-109.0","{""Q0"":""Yellow Warbler""}","Yellow Warbler","Wood-Warblers","875"
"","7946","image-multi-choice","111","952765","0.0-1.0-110.0","{""Q0"":""Blackburnian Warbler""}","Lincoln's Sparrow","New World Sparrows and Allies","903"
"","6518","image-multi-choice","112","960299","0.0-1.0-111.0","{""Q0"":""Black-and-white Warbler""}","Townsend's Warbler","Wood-Warblers","881"
"","7735","image-multi-choice","113","969049","0.0-1.0-112.0","{""Q0"":""White-crowned Sparrow""}","White-crowned Sparrow","New World Sparrows and Allies","766"
"","3816","image-multi-choice","114","973879","0.0-1.0-113.0","{""Q0"":""White-crowned Sparrow""}","Blackburnian Warbler","Wood-Warblers","874"
"","5079","image-multi-choice","115","979973","0.0-1.0-114.0","{""Q0"":""Ovenbird""}","Nashville Warbler","Wood-Warblers","868"
"","6940","image-multi-choice","116","987929","0.0-1.0-115.0","{""Q0"":""Nashville Warbler""}","Tennessee Warbler","Wood-Warblers","866"
"","6223","image-multi-choice","117","995164","0.0-1.0-116.0","{""Q0"":""Fox Sparrow""}","Vesper Sparrow","New World Sparrows and Allies","898"
"","7663","image-multi-choice","118","1003842","0.0-1.0-117.0","{""Q0"":""White-crowned Sparrow""}","Swamp Sparrow","New World Sparrows and Allies","904"
"","5001","image-multi-choice","119","1009857","0.0-1.0-118.0","{""Q0"":""White-throated Sparrow""}","White-crowned Sparrow","New World Sparrows and Allies","766"
"","4568","image-multi-choice","120","1024908","0.0-1.0-119.0","{""Q0"":""Black-and-white Warbler""}","Blackburnian Warbler","Wood-Warblers","874"
"","9864","image-multi-choice","121","1035800","0.0-1.0-120.0","{""Q0"":""Black-and-white Warbler""}","Fox Sparrow","New World Sparrows and Allies","901"
"","6219","image-multi-choice","122","1043036","0.0-1.0-121.0","{""Q0"":""Chipping Sparrow""}","Vesper Sparrow","New World Sparrows and Allies","898"
"","4091","image-multi-choice","123","1048141","0.0-1.0-122.0","{""Q0"":""Yellow Warbler""}","Yellow Warbler","Wood-Warblers","875"
"","5001","image-multi-choice","124","1054154","0.0-1.0-123.0","{""Q0"":""Swamp Sparrow""}","Song Sparrow","New World Sparrows and Allies","902"
"","8390","image-multi-choice","125","1063557","0.0-1.0-124.0","{""Q0"":""Nashville Warbler""}","Townsend's Warbler","Wood-Warblers","881"
"","4244","image-multi-choice","126","1068813","0.0-1.0-125.0","{""Q0"":""White-crowned Sparrow""}","White-crowned Sparrow","New World Sparrows and Allies","766"
"","3432","image-multi-choice","127","1073260","0.0-1.0-126.0","{""Q0"":""White-throated Sparrow""}","Song Sparrow","New World Sparrows and Allies","902"
"","4572","image-multi-choice","128","1078848","0.0-1.0-127.0","{""Q0"":""Northern Waterthrush""}","Ovenbird","Wood-Warblers","860"
"","4522","image-multi-choice","129","1084383","0.0-1.0-128.0","{""Q0"":""Black-and-white Warbler""}","Magnolia Warbler","Wood-Warblers","758"
"","7171","image-multi-choice","130","1092569","0.0-1.0-129.0","{""Q0"":""Orange-crowned Warbler""}","Swamp Sparrow","New World Sparrows and Allies","904"
"","4726","image-multi-choice","131","1098311","0.0-1.0-130.0","{""Q0"":""White-throated Sparrow""}","Lark Sparrow","New World Sparrows and Allies","899"
"","4834","image-multi-choice","132","1104349","0.0-1.0-131.0","{""Q0"":""Black-and-white Warbler""}","Magnolia Warbler","Wood-Warblers","758"
"","5880","image-multi-choice","133","1111244","0.0-1.0-132.0","{""Q0"":""Blackburnian Warbler""}","White-throated Sparrow","New World Sparrows and Allies","764"
"","8995","image-multi-choice","134","1121253","0.0-1.0-133.0","{""Q0"":""Chipping Sparrow""}","Magnolia Warbler","Wood-Warblers","758"
"","3529","image-multi-choice","135","1125795","0.0-1.0-134.0","{""Q0"":""Yellow Warbler""}","Yellow Warbler","Wood-Warblers","875"
"","7405","image-multi-choice","136","1134217","0.0-1.0-135.0","{""Q0"":""Orange-crowned Warbler""}","Tennessee Warbler","Wood-Warblers","866"
"","4583","image-multi-choice","137","1139813","0.0-1.0-136.0","{""Q0"":""Northern Waterthrush""}","Ovenbird","Wood-Warblers","860"
"","8995","image-multi-choice","138","1149824","0.0-1.0-137.0","{""Q0"":""Nashville Warbler""}","Black-and-white Warbler","Wood-Warblers","864"
"","7753","image-multi-choice","139","1158591","0.0-1.0-138.0","{""Q0"":""White-crowned Sparrow""}","Chipping Sparrow","New World Sparrows and Allies","769"
"","4633","image-multi-choice","140","1164239","0.0-1.0-139.0","{""Q0"":""Northern Waterthrush""}","Northern Waterthrush","Wood-Warblers","862"
"","5514","image-multi-choice","141","1170769","0.0-1.0-140.0","{""Q0"":""Lark Sparrow""}","Vesper Sparrow","New World Sparrows and Allies","898"
"","3647","image-multi-choice","142","1175433","0.0-1.0-141.0","{""Q0"":""White-throated Sparrow""}","White-throated Sparrow","New World Sparrows and Allies","764"
"","5345","image-multi-choice","143","1181792","0.0-1.0-142.0","{""Q0"":""Black-and-white Warbler""}","Magnolia Warbler","Wood-Warblers","758"
"","4465","image-multi-choice","144","1187271","0.0-1.0-143.0","{""Q0"":""Black-and-white Warbler""}","Blackburnian Warbler","Wood-Warblers","874"
"","10243","image-multi-choice","145","1198787","0.0-1.0-144.0","{""Q0"":""Ovenbird""}","Lark Sparrow","New World Sparrows and Allies","899"
"","5054","image-multi-choice","146","1204858","0.0-1.0-145.0","{""Q0"":""Orange-crowned Warbler""}","Song Sparrow","New World Sparrows and Allies","902"
"","3748","image-multi-choice","147","1209620","0.0-1.0-146.0","{""Q0"":""White-crowned Sparrow""}","White-crowned Sparrow","New World Sparrows and Allies","766"
"","6219","image-multi-choice","148","1216851","0.0-1.0-147.0","{""Q0"":""Song Sparrow""}","Chipping Sparrow","New World Sparrows and Allies","769"
"","6721","image-multi-choice","149","1224594","0.0-1.0-148.0","{""Q0"":""Orange-crowned Warbler""}","Swamp Sparrow","New World Sparrows and Allies","904"
"","4260","image-multi-choice","150","1229869","0.0-1.0-149.0","{""Q0"":""Northern Waterthrush""}","Fox Sparrow","New World Sparrows and Allies","901"
"","4143","image-multi-choice","151","1235028","0.0-1.0-150.0","{""Q0"":""Yellow Warbler""}","Yellow Warbler","Wood-Warblers","875"
"","5972","image-multi-choice","152","1242015","0.0-1.0-151.0","{""Q0"":""White-crowned Sparrow""}","White-crowned Sparrow","New World Sparrows and Allies","766"
"","5926","image-multi-choice","153","1248954","0.0-1.0-152.0","{""Q0"":""Northern Waterthrush""}","Song Sparrow","New World Sparrows and Allies","902"
"","10665","image-multi-choice","154","1260635","0.0-1.0-153.0","{""Q0"":""Magnolia Warbler""}","Northern Waterthrush","Wood-Warblers","862"
"","4092","image-multi-choice","155","1265741","0.0-1.0-154.0","{""Q0"":""White-throated Sparrow""}","White-crowned Sparrow","New World Sparrows and Allies","766"
"","7170","image-multi-choice","156","1273922","0.0-1.0-155.0","{""Q0"":""Townsend's Warbler""}","Yellow Warbler","Wood-Warblers","875"
"","3172","image-multi-choice","157","1278112","0.0-1.0-156.0","{""Q0"":""White-throated Sparrow""}","White-throated Sparrow","New World Sparrows and Allies","764"
"","2870","image-multi-choice","158","1282001","0.0-1.0-157.0","{""Q0"":""White-crowned Sparrow""}","White-crowned Sparrow","New World Sparrows and Allies","766"
"","3689","image-multi-choice","159","1286706","0.0-1.0-158.0","{""Q0"":""Black-and-white Warbler""}","Townsend's Warbler","Wood-Warblers","881"
"","8782","image-multi-choice","160","1296502","0.0-1.0-159.0","{""Q0"":""Orange-crowned Warbler""}","Tennessee Warbler","Wood-Warblers","866"
"","12016","image-multi-choice","161","1309532","0.0-1.0-160.0","{""Q0"":""White-throated Sparrow""}","White-throated Sparrow","New World Sparrows and Allies","764"
"","4224","image-multi-choice","162","1314771","0.0-1.0-161.0","{""Q0"":""Northern Waterthrush""}","Fox Sparrow","New World Sparrows and Allies","901"
"","6297","image-multi-choice","163","1322088","0.0-1.0-162.0","{""Q0"":""Vesper Sparrow""}","Song Sparrow","New World Sparrows and Allies","902"
"","3761","image-multi-choice","164","1326866","0.0-1.0-163.0","{""Q0"":""White-crowned Sparrow""}","White-crowned Sparrow","New World Sparrows and Allies","766"
"","3871","image-multi-choice","165","1331756","0.0-1.0-164.0","{""Q0"":""White-crowned Sparrow""}","Song Sparrow","New World Sparrows and Allies","902"
"","6326","image-multi-choice","166","1339099","0.0-1.0-165.0","{""Q0"":""White-crowned Sparrow""}","American Tree Sparrow","New World Sparrows and Allies","894"
"","8029","image-multi-choice","167","1348142","0.0-1.0-166.0","{""Q0"":""Nashville Warbler""}","Orange-crowned Warbler","Wood-Warblers","867"
"","4246","image-multi-choice","168","1353404","0.0-1.0-167.0","{""Q0"":""White-throated Sparrow""}","Lincoln's Sparrow","New World Sparrows and Allies","903"
"","5014","image-multi-choice","169","1359724","0.0-1.0-168.0","{""Q0"":""Black-and-white Warbler""}","Blackburnian Warbler","Wood-Warblers","874"
"","3642","image-multi-choice","170","1364380","0.0-1.0-169.0","{""Q0"":""White-throated Sparrow""}","White-throated Sparrow","New World Sparrows and Allies","764"
"","4657","image-multi-choice","171","1370071","0.0-1.0-170.0","{""Q0"":""Northern Waterthrush""}","Fox Sparrow","New World Sparrows and Allies","901"
"","4887","image-multi-choice","172","1375971","0.0-1.0-171.0","{""Q0"":""White-crowned Sparrow""}","Chipping Sparrow","New World Sparrows and Allies","769"
"","5711","image-multi-choice","173","1382699","0.0-1.0-172.0","{""Q0"":""Vesper Sparrow""}","Swamp Sparrow","New World Sparrows and Allies","904"
"","6313","image-multi-choice","174","1390026","0.0-1.0-173.0","{""Q0"":""Lincoln's Sparrow""}","Lincoln's Sparrow","New World Sparrows and Allies","903"
"","5273","image-multi-choice","175","1396314","0.0-1.0-174.0","{""Q0"":""Fox Sparrow""}","Swamp Sparrow","New World Sparrows and Allies","904"
"","4501","image-multi-choice","176","1401831","0.0-1.0-175.0","{""Q0"":""Black-and-white Warbler""}","Townsend's Warbler","Wood-Warblers","881"
"","5960","image-multi-choice","177","1408808","0.0-1.0-176.0","{""Q0"":""White-throated Sparrow""}","American Tree Sparrow","New World Sparrows and Allies","894"
"","3618","image-multi-choice","178","1413441","0.0-1.0-177.0","{""Q0"":""Northern Waterthrush""}","Fox Sparrow","New World Sparrows and Allies","901"
"","7461","image-multi-choice","179","1421917","0.0-1.0-178.0","{""Q0"":""Swamp Sparrow""}","Lincoln's Sparrow","New World Sparrows and Allies","903"
"","3787","image-multi-choice","180","1434444","0.0-1.0-179.0","{""Q0"":""Black-and-white Warbler""}","Magnolia Warbler","Wood-Warblers","758"
"","7585","image-multi-choice","181","1443045","0.0-1.0-180.0","{""Q0"":""Yellow Warbler""}","Orange-crowned Warbler","Wood-Warblers","867"
"","4210","image-multi-choice","182","1448271","0.0-1.0-181.0","{""Q0"":""Yellow Warbler""}","Tennessee Warbler","Wood-Warblers","866"
"","4203","image-multi-choice","183","1453490","0.0-1.0-182.0","{""Q0"":""Orange-crowned Warbler""}","Vesper Sparrow","New World Sparrows and Allies","898"
"","3304","image-multi-choice","184","1457808","0.0-1.0-183.0","{""Q0"":""Black-and-white Warbler""}","Blackburnian Warbler","Wood-Warblers","874"
"","6602","image-multi-choice","185","1465424","0.0-1.0-184.0","{""Q0"":""Song Sparrow""}","Lincoln's Sparrow","New World Sparrows and Allies","903"
"","3942","image-multi-choice","186","1470383","0.0-1.0-185.0","{""Q0"":""Black-and-white Warbler""}","Townsend's Warbler","Wood-Warblers","881"
"","4221","image-multi-choice","187","1475618","0.0-1.0-186.0","{""Q0"":""Lark Sparrow""}","Ovenbird","Wood-Warblers","860"
"","4005","image-multi-choice","188","1480638","0.0-1.0-187.0","{""Q0"":""Yellow Warbler""}","Orange-crowned Warbler","Wood-Warblers","867"
"","7951","image-multi-choice","189","1489604","0.0-1.0-188.0","{""Q0"":""White-crowned Sparrow""}","Chipping Sparrow","New World Sparrows and Allies","769"
"","5226","image-multi-choice","190","1495846","0.0-1.0-189.0","{""Q0"":""White-crowned Sparrow""}","American Tree Sparrow","New World Sparrows and Allies","894"
"","7460","image-multi-choice","191","1504319","0.0-1.0-190.0","{""Q0"":""Song Sparrow""}","Vesper Sparrow","New World Sparrows and Allies","898"
"","4771","image-multi-choice","192","1510106","0.0-1.0-191.0","{""Q0"":""Orange-crowned Warbler""}","Lincoln's Sparrow","New World Sparrows and Allies","903"
"","8139","image-multi-choice","193","1519259","0.0-1.0-192.0","{""Q0"":""White-throated Sparrow""}","Tennessee Warbler","Wood-Warblers","866"
"","4664","image-multi-choice","194","1524937","0.0-1.0-193.0","{""Q0"":""White-crowned Sparrow""}","American Tree Sparrow","New World Sparrows and Allies","894"
"","3752","image-multi-choice","195","1529766","0.0-1.0-194.0","{""Q0"":""White-throated Sparrow""}","Lark Sparrow","New World Sparrows and Allies","899"
"","3402","image-multi-choice","196","1534184","0.0-1.0-195.0","{""Q0"":""Yellow Warbler""}","Tennessee Warbler","Wood-Warblers","866"
"","4682","image-multi-choice","197","1539882","0.0-1.0-196.0","{""Q0"":""Northern Waterthrush""}","Northern Waterthrush","Wood-Warblers","862"
"","3350","image-multi-choice","198","1544248","0.0-1.0-197.0","{""Q0"":""White-throated Sparrow""}","White-throated Sparrow","New World Sparrows and Allies","764"
"","2982","image-multi-choice","199","1548245","0.0-1.0-198.0","{""Q0"":""Yellow Warbler""}","Yellow Warbler","Wood-Warblers","875"
"","3644","image-multi-choice","200","1552902","0.0-1.0-199.0","{""Q0"":""White-crowned Sparrow""}","White-crowned Sparrow","New World Sparrows and Allies","766"
"","8460","image-multi-choice","201","1562378","0.0-1.0-200.0","{""Q0"":""White-crowned Sparrow""}","American Tree Sparrow","New World Sparrows and Allies","894"
"","4637","image-multi-choice","202","1568027","0.0-1.0-201.0","{""Q0"":""Tennessee Warbler""}","Ovenbird","Wood-Warblers","860"
"","4396","image-multi-choice","203","1573436","0.0-1.0-202.0","{""Q0"":""Black-and-white Warbler""}","Magnolia Warbler","Wood-Warblers","758"
"","6080","image-multi-choice","204","1580530","0.0-1.0-203.0","{""Q0"":""Tennessee Warbler""}","Black-and-white Warbler","Wood-Warblers","864"
"","4640","image-multi-choice","205","1586186","0.0-1.0-204.0","{""Q0"":""Northern Waterthrush""}","Northern Waterthrush","Wood-Warblers","862"
"","6362","image-multi-choice","206","1593563","0.0-1.0-205.0","{""Q0"":""Orange-crowned Warbler""}","American Tree Sparrow","New World Sparrows and Allies","894"
"","3584","image-multi-choice","207","1598160","0.0-1.0-206.0","{""Q0"":""Black-and-white Warbler""}","Magnolia Warbler","Wood-Warblers","758"
"","10812","image-multi-choice","208","1609987","0.0-1.0-207.0","{""Q0"":""Nashville Warbler""}","Blackburnian Warbler","Wood-Warblers","874"
"","4387","image-multi-choice","209","1615389","0.0-1.0-208.0","{""Q0"":""White-crowned Sparrow""}","Swamp Sparrow","New World Sparrows and Allies","904"
"","4055","image-multi-choice","210","1620459","0.0-1.0-209.0","{""Q0"":""White-crowned Sparrow""}","American Tree Sparrow","New World Sparrows and Allies","894"
"","3786","image-multi-choice","211","1625281","0.0-1.0-210.0","{""Q0"":""Orange-crowned Warbler""}","Ovenbird","Wood-Warblers","860"
"","4547","image-multi-choice","212","1630851","0.0-1.0-211.0","{""Q0"":""White-throated Sparrow""}","Swamp Sparrow","New World Sparrows and Allies","904"
"","4971","image-multi-choice","213","1636838","0.0-1.0-212.0","{""Q0"":""Swamp Sparrow""}","Song Sparrow","New World Sparrows and Allies","902"
"","4179","image-multi-choice","214","1642033","0.0-1.0-213.0","{""Q0"":""Black-and-white Warbler""}","Blackburnian Warbler","Wood-Warblers","874"
"","8078","image-multi-choice","215","1651127","0.0-1.0-214.0","{""Q0"":""Nashville Warbler""}","Vesper Sparrow","New World Sparrows and Allies","898"
"","4468","image-multi-choice","216","1656614","0.0-1.0-215.0","{""Q0"":""Black-and-white Warbler""}","Blackburnian Warbler","Wood-Warblers","874"
"","5729","image-multi-choice","217","1663379","0.0-1.0-216.0","{""Q0"":""Song Sparrow""}","Song Sparrow","New World Sparrows and Allies","902"
"","6940","image-multi-choice","218","1671351","0.0-1.0-217.0","{""Q0"":""Yellow Warbler""}","Tennessee Warbler","Wood-Warblers","866"
"","4210","image-multi-choice","219","1676585","0.0-1.0-218.0","{""Q0"":""White-crowned Sparrow""}","Black-and-white Warbler","Wood-Warblers","864"
"","5523","image-multi-choice","220","1683140","0.0-1.0-219.0","{""Q0"":""Northern Waterthrush""}","Ovenbird","Wood-Warblers","860"
"","3269","image-multi-choice","221","1687427","0.0-1.0-220.0","{""Q0"":""White-throated Sparrow""}","White-throated Sparrow","New World Sparrows and Allies","764"
"","3786","image-multi-choice","222","1692237","0.0-1.0-221.0","{""Q0"":""White-throated Sparrow""}","Vesper Sparrow","New World Sparrows and Allies","898"
"","17858","image-multi-choice","223","1711112","0.0-1.0-222.0","{""Q0"":""White-throated Sparrow""}","American Tree Sparrow","New World Sparrows and Allies","894"
"","4707","image-multi-choice","224","1716844","0.0-1.0-223.0","{""Q0"":""Yellow Warbler""}","Yellow Warbler","Wood-Warblers","875"
"","5585","image-multi-choice","225","1723444","0.0-1.0-224.0","{""Q0"":""Northern Waterthrush""}","Northern Waterthrush","Wood-Warblers","862"
"","4614","image-multi-choice","226","1729074","0.0-1.0-225.0","{""Q0"":""Black-and-white Warbler""}","Blackburnian Warbler","Wood-Warblers","874"
"","3301","image-multi-choice","227","1733391","0.0-1.0-226.0","{""Q0"":""White-throated Sparrow""}","White-throated Sparrow","New World Sparrows and Allies","764"
"","6728","image-multi-choice","228","1741134","0.0-1.0-227.0","{""Q0"":""Lark Sparrow""}","Song Sparrow","New World Sparrows and Allies","902"
"","5442","image-multi-choice","229","1747593","0.0-1.0-228.0","{""Q0"":""Northern Waterthrush""}","Ovenbird","Wood-Warblers","860"
"","4759","image-multi-choice","230","1753368","0.0-1.0-229.0","{""Q0"":""Black-and-white Warbler""}","Townsend's Warbler","Wood-Warblers","881"
"","6098","image-multi-choice","231","1760481","0.0-1.0-230.0","{""Q0"":""Ovenbird""}","Nashville Warbler","Wood-Warblers","868"
"","6282","image-multi-choice","232","1767777","0.0-1.0-231.0","{""Q0"":""Fox Sparrow""}","Fox Sparrow","New World Sparrows and Allies","901"
"","5458","image-multi-choice","233","1774251","0.0-1.0-232.0","{""Q0"":""Orange-crowned Warbler""}","Ovenbird","Wood-Warblers","860"
"","5013","image-multi-choice","234","1780278","0.0-1.0-233.0","{""Q0"":""Black-and-white Warbler""}","Magnolia Warbler","Wood-Warblers","758"
"","27301","image-multi-choice","235","1808594","0.0-1.0-234.0","{""Q0"":""Song Sparrow""}","American Tree Sparrow","New World Sparrows and Allies","894"
"","4414","image-multi-choice","236","1814023","0.0-1.0-235.0","{""Q0"":""Black-and-white Warbler""}","Blackburnian Warbler","Wood-Warblers","874"
"","5568","image-multi-choice","237","1820607","0.0-1.0-236.0","{""Q0"":""White-throated Sparrow""}","Chipping Sparrow","New World Sparrows and Allies","769"
"","8522","image-multi-choice","238","1830328","0.0-1.0-237.0","{""Q0"":""White-throated Sparrow""}","Fox Sparrow","New World Sparrows and Allies","901"
"","7459","image-multi-choice","239","1838801","0.0-1.0-238.0","{""Q0"":""Lark Sparrow""}","Vesper Sparrow","New World Sparrows and Allies","898"
"","4707","image-multi-choice","240","1851741","0.0-1.0-239.0","{""Q0"":""Northern Waterthrush""}","Northern Waterthrush","Wood-Warblers","862"
"","9352","image-multi-choice","241","1862114","0.0-1.0-240.0","{""Q0"":""Northern Waterthrush""}","Lark Sparrow","New World Sparrows and Allies","899"
"","4797","image-multi-choice","242","1867929","0.0-1.0-241.0","{""Q0"":""Ovenbird""}","Nashville Warbler","Wood-Warblers","868"
"","4468","image-multi-choice","243","1873414","0.0-1.0-242.0","{""Q0"":""Northern Waterthrush""}","Ovenbird","Wood-Warblers","860"
"","4381","image-multi-choice","244","1878817","0.0-1.0-243.0","{""Q0"":""White-crowned Sparrow""}","Northern Waterthrush","Wood-Warblers","862"
"","10080","image-multi-choice","245","1889911","0.0-1.0-244.0","{""Q0"":""Yellow Warbler""}","Orange-crowned Warbler","Wood-Warblers","867"
"","4483","image-multi-choice","246","1895412","0.0-1.0-245.0","{""Q0"":""Northern Waterthrush""}","Chipping Sparrow","New World Sparrows and Allies","769"
"","4653","image-multi-choice","247","1901079","0.0-1.0-246.0","{""Q0"":""Orange-crowned Warbler""}","Tennessee Warbler","Wood-Warblers","866"
"","7067","image-multi-choice","248","1909160","0.0-1.0-247.0","{""Q0"":""Northern Waterthrush""}","Yellow Warbler","Wood-Warblers","875"
"","5413","image-multi-choice","249","1915589","0.0-1.0-248.0","{""Q0"":""Vesper Sparrow""}","Lincoln's Sparrow","New World Sparrows and Allies","903"
"","4781","image-multi-choice","250","1921385","0.0-1.0-249.0","{""Q0"":""Lark Sparrow""}","Vesper Sparrow","New World Sparrows and Allies","898"
"","5841","image-multi-choice","251","1928242","0.0-1.0-250.0","{""Q0"":""Nashville Warbler""}","Black-and-white Warbler","Wood-Warblers","864"
"","5198","image-multi-choice","252","1934457","0.0-1.0-251.0","{""Q0"":""Lincoln's Sparrow""}","Song Sparrow","New World Sparrows and Allies","902"
"","4155","image-multi-choice","253","1939628","0.0-1.0-252.0","{""Q0"":""White-crowned Sparrow""}","Chipping Sparrow","New World Sparrows and Allies","769"
"","6102","image-multi-choice","254","1946744","0.0-1.0-253.0","{""Q0"":""White-crowned Sparrow""}","Magnolia Warbler","Wood-Warblers","758"
"","3829","image-multi-choice","255","1951587","0.0-1.0-254.0","{""Q0"":""White-throated Sparrow""}","Lincoln's Sparrow","New World Sparrows and Allies","903"
"","2974","image-multi-choice","256","1955577","0.0-1.0-255.0","{""Q0"":""White-throated Sparrow""}","White-throated Sparrow","New World Sparrows and Allies","764"
"","4901","image-multi-choice","257","1961493","0.0-1.0-256.0","{""Q0"":""Nashville Warbler""}","Fox Sparrow","New World Sparrows and Allies","901"
"","4381","image-multi-choice","258","1966889","0.0-1.0-257.0","{""Q0"":""Blackburnian Warbler""}","Black-and-white Warbler","Wood-Warblers","864"
"","8394","image-multi-choice","259","1976299","0.0-1.0-258.0","{""Q0"":""Northern Waterthrush""}","Chipping Sparrow","New World Sparrows and Allies","769"
"","4608","image-multi-choice","260","1981926","0.0-1.0-259.0","{""Q0"":""Yellow Warbler""}","Orange-crowned Warbler","Wood-Warblers","867"
"","4871","image-multi-choice","261","1987811","0.0-1.0-260.0","{""Q0"":""Northern Waterthrush""}","Lark Sparrow","New World Sparrows and Allies","899"
"","5377","image-multi-choice","262","1994206","0.0-1.0-261.0","{""Q0"":""White-throated Sparrow""}","Lincoln's Sparrow","New World Sparrows and Allies","903"
"","4844","image-multi-choice","263","2000066","0.0-1.0-262.0","{""Q0"":""Northern Waterthrush""}","Northern Waterthrush","Wood-Warblers","862"
"","4359","image-multi-choice","264","2005441","0.0-1.0-263.0","{""Q0"":""Yellow Warbler""}","Nashville Warbler","Wood-Warblers","868"
"","5336","image-multi-choice","265","2011794","0.0-1.0-264.0","{""Q0"":""Black-and-white Warbler""}","Lark Sparrow","New World Sparrows and Allies","899"
"","3899","image-multi-choice","266","2016709","0.0-1.0-265.0","{""Q0"":""Yellow Warbler""}","Orange-crowned Warbler","Wood-Warblers","867"
"","3562","image-multi-choice","267","2021287","0.0-1.0-266.0","{""Q0"":""Black-and-white Warbler""}","Magnolia Warbler","Wood-Warblers","758"
"","4511","image-multi-choice","268","2026831","0.0-1.0-267.0","{""Q0"":""Yellow Warbler""}","Orange-crowned Warbler","Wood-Warblers","867"
"","2972","image-multi-choice","269","2030818","0.0-1.0-268.0","{""Q0"":""Yellow Warbler""}","Yellow Warbler","Wood-Warblers","875"
"","5555","image-multi-choice","270","2037388","0.0-1.0-269.0","{""Q0"":""Blackburnian Warbler""}","Orange-crowned Warbler","Wood-Warblers","867"
"","8595","image-multi-choice","271","2046998","0.0-1.0-270.0","{""Q0"":""Orange-crowned Warbler""}","Lincoln's Sparrow","New World Sparrows and Allies","903"
"","7742","image-multi-choice","272","2055754","0.0-1.0-271.0","{""Q0"":""Northern Waterthrush""}","Lark Sparrow","New World Sparrows and Allies","899"
"","3555","image-multi-choice","273","2060337","0.0-1.0-272.0","{""Q0"":""Orange-crowned Warbler""}","Lincoln's Sparrow","New World Sparrows and Allies","903"
"","9075","image-multi-choice","274","2070432","0.0-1.0-273.0","{""Q0"":""Orange-crowned Warbler""}","Nashville Warbler","Wood-Warblers","868"
"","3825","image-multi-choice","275","2075276","0.0-1.0-274.0","{""Q0"":""Black-and-white Warbler""}","Lark Sparrow","New World Sparrows and Allies","899"
"","3352","image-multi-choice","276","2079643","0.0-1.0-275.0","{""Q0"":""White-throated Sparrow""}","Chipping Sparrow","New World Sparrows and Allies","769"
"","2656","image-multi-choice","277","2083313","0.0-1.0-276.0","{""Q0"":""White-throated Sparrow""}","White-throated Sparrow","New World Sparrows and Allies","764"
"","3302","image-multi-choice","278","2087631","0.0-1.0-277.0","{""Q0"":""White-crowned Sparrow""}","Song Sparrow","New World Sparrows and Allies","902"
"","5133","image-multi-choice","279","2093779","0.0-1.0-278.0","{""Q0"":""White-crowned Sparrow""}","Ovenbird","Wood-Warblers","860"
"","7178","image-multi-choice","280","2101970","0.0-1.0-279.0","{""Q0"":""Blackburnian Warbler""}","Lark Sparrow","New World Sparrows and Allies","899"
"","4754","image-multi-choice","281","2107738","0.0-1.0-280.0","{""Q0"":""American Tree Sparrow""}","Chipping Sparrow","New World Sparrows and Allies","769"
"","10053","image-multi-choice","282","2118807","0.0-1.0-281.0","{""Q0"":""Vesper Sparrow""}","Lark Sparrow","New World Sparrows and Allies","899"
"","6079","image-multi-choice","283","2125902","0.0-1.0-282.0","{""Q0"":""Swamp Sparrow""}","Song Sparrow","New World Sparrows and Allies","902"
"","3179","image-multi-choice","284","2130097","0.0-1.0-283.0","{""Q0"":""White-throated Sparrow""}","White-throated Sparrow","New World Sparrows and Allies","764"
"","4114","image-multi-choice","285","2135226","0.0-1.0-284.0","{""Q0"":""Black-and-white Warbler""}","Magnolia Warbler","Wood-Warblers","758"
"","5954","image-multi-choice","286","2142195","0.0-1.0-285.0","{""Q0"":""Ovenbird""}","Orange-crowned Warbler","Wood-Warblers","867"
"","3748","image-multi-choice","287","2146956","0.0-1.0-286.0","{""Q0"":""Orange-crowned Warbler""}","Lincoln's Sparrow","New World Sparrows and Allies","903"
"","3940","image-multi-choice","288","2151913","0.0-1.0-287.0","{""Q0"":""White-crowned Sparrow""}","Lark Sparrow","New World Sparrows and Allies","899"
"","5345","image-multi-choice","289","2158273","0.0-1.0-288.0","{""Q0"":""Nashville Warbler""}","Townsend's Warbler","Wood-Warblers","881"
"","3981","image-multi-choice","290","2163272","0.0-1.0-289.0","{""Q0"":""Black-and-white Warbler""}","Black-and-white Warbler","Wood-Warblers","864"
"","3427","image-multi-choice","291","2167715","0.0-1.0-290.0","{""Q0"":""Yellow Warbler""}","Tennessee Warbler","Wood-Warblers","866"
"","4552","image-multi-choice","292","2173281","0.0-1.0-291.0","{""Q0"":""White-crowned Sparrow""}","American Tree Sparrow","New World Sparrows and Allies","894"
"","5997","image-multi-choice","293","2180294","0.0-1.0-292.0","{""Q0"":""Song Sparrow""}","Chipping Sparrow","New World Sparrows and Allies","769"
"","5356","image-multi-choice","294","2186666","0.0-1.0-293.0","{""Q0"":""Black-and-white Warbler""}","Lark Sparrow","New World Sparrows and Allies","899"
"","11128","image-multi-choice","295","2198809","0.0-1.0-294.0","{""Q0"":""Black-and-white Warbler""}","Magnolia Warbler","Wood-Warblers","758"
"","6024","image-multi-choice","296","2205849","0.0-1.0-295.0","{""Q0"":""Blackburnian Warbler""}","Yellow Warbler","Wood-Warblers","875"
"","3612","image-multi-choice","297","2210475","0.0-1.0-296.0","{""Q0"":""White-crowned Sparrow""}","White-crowned Sparrow","New World Sparrows and Allies","766"
"","5356","image-multi-choice","298","2216845","0.0-1.0-297.0","{""Q0"":""Song Sparrow""}","Swamp Sparrow","New World Sparrows and Allies","904"
"","4498","image-multi-choice","299","2222357","0.0-1.0-298.0","{""Q0"":""Orange-crowned Warbler""}","Orange-crowned Warbler","Wood-Warblers","867"
"","4234","image-multi-choice","300","2243937","0.0-1.0-299.0","{""Q0"":""Lark Sparrow""}","Vesper Sparrow","New World Sparrows and Allies","898"
"[{""page_index"":0,""viewing_time"":1848}]","1849","instructions","301","2246787","0.0-2.0","","","",""
