[{"view_history":"[{\"page_index\":0,\"viewing_time\":33561}]","rt":33563,"trial_type":"instructions","trial_index":0,"time_elapsed":33564,"internal_node_id":"0.0-0.0"},{"rt":24152,"responses":"{\"Q0\":\"American Tree Sparrow\"}","bird":["Townsend's Warbler"],"family":["Wood-Warblers"],"class":["881"],"trial_type":"image-multi-choice","trial_index":1,"time_elapsed":58743,"internal_node_id":"0.0-1.0-0.0"},{"rt":7709,"responses":"{\"Q0\":\"Lark Sparrow\"}","bird":["Lark Sparrow"],"family":["New World Sparrows and Allies"],"class":["899"],"trial_type":"image-multi-choice","trial_index":2,"time_elapsed":67469,"internal_node_id":"0.0-1.0-1.0"},{"rt":6841,"responses":"{\"Q0\":\"White-crowned Sparrow\"}","bird":["White-crowned Sparrow"],"family":["New World Sparrows and Allies"],"class":["766"],"trial_type":"image-multi-choice","trial_index":3,"time_elapsed":75332,"internal_node_id":"0.0-1.0-2.0"},{"rt":7863,"responses":"{\"Q0\":\"Lark Sparrow\"}","bird":["Lark Sparrow"],"family":["New World Sparrows and Allies"],"class":["899"],"trial_type":"image-multi-choice","trial_index":4,"time_elapsed":84218,"internal_node_id":"0.0-1.0-3.0"},{"rt":7774,"responses":"{\"Q0\":\"White-throated Sparrow\"}","bird":["White-throated Sparrow"],"family":["New World Sparrows and Allies"],"class":["764"],"trial_type":"image-multi-choice","trial_index":5,"time_elapsed":93017,"internal_node_id":"0.0-1.0-4.0"},{"rt":4064,"responses":"{\"Q0\":\"White-crowned Sparrow\"}","bird":["White-crowned Sparrow"],"family":["New World Sparrows and Allies"],"class":["766"],"trial_type":"image-multi-choice","trial_index":6,"time_elapsed":98103,"internal_node_id":"0.0-1.0-5.0"},{"rt":12392,"responses":"{\"Q0\":\"Blackburnian Warbler\"}","bird":["Tennessee Warbler"],"family":["Wood-Warblers"],"class":["866"],"trial_type":"image-multi-choice","trial_index":7,"time_elapsed":111516,"internal_node_id":"0.0-1.0-6.0"},{"rt":3953,"responses":"{\"Q0\":\"White-crowned Sparrow\"}","bird":["White-crowned Sparrow"],"family":["New World Sparrows and Allies"],"class":["766"],"trial_type":"image-multi-choice","trial_index":8,"time_elapsed":116488,"internal_node_id":"0.0-1.0-7.0"},{"rt":15877,"responses":"{\"Q0\":\"Orange-crowned Warbler\"}","bird":["Orange-crowned Warbler"],"family":["Wood-Warblers"],"class":["867"],"trial_type":"image-multi-choice","trial_index":9,"time_elapsed":133373,"internal_node_id":"0.0-1.0-8.0"},{"rt":7160,"responses":"{\"Q0\":\"Swamp Sparrow\"}","bird":["Swamp Sparrow"],"family":["New World Sparrows and Allies"],"class":["904"],"trial_type":"image-multi-choice","trial_index":10,"time_elapsed":141551,"internal_node_id":"0.0-1.0-9.0"},{"rt":5335,"responses":"{\"Q0\":\"Tennessee Warbler\"}","bird":["Orange-crowned Warbler"],"family":["Wood-Warblers"],"class":["867"],"trial_type":"image-multi-choice","trial_index":11,"time_elapsed":147906,"internal_node_id":"0.0-1.0-10.0"},{"rt":4219,"responses":"{\"Q0\":\"White-crowned Sparrow\"}","bird":["White-crowned Sparrow"],"family":["New World Sparrows and Allies"],"class":["766"],"trial_type":"image-multi-choice","trial_index":12,"time_elapsed":153134,"internal_node_id":"0.0-1.0-11.0"},{"rt":6030,"responses":"{\"Q0\":\"Lark Sparrow\"}","bird":["Townsend's Warbler"],"family":["Wood-Warblers"],"class":["881"],"trial_type":"image-multi-choice","trial_index":13,"time_elapsed":160185,"internal_node_id":"0.0-1.0-12.0"},{"rt":5113,"responses":"{\"Q0\":\"Swamp Sparrow\"}","bird":["Lincoln's Sparrow"],"family":["New World Sparrows and Allies"],"class":["903"],"trial_type":"image-multi-choice","trial_index":14,"time_elapsed":166316,"internal_node_id":"0.0-1.0-13.0"},{"rt":4309,"responses":"{\"Q0\":\"Ovenbird\"}","bird":["Ovenbird"],"family":["Wood-Warblers"],"class":["860"],"trial_type":"image-multi-choice","trial_index":15,"time_elapsed":171645,"internal_node_id":"0.0-1.0-14.0"},{"rt":10304,"responses":"{\"Q0\":\"Orange-crowned Warbler\"}","bird":["Tennessee Warbler"],"family":["Wood-Warblers"],"class":["866"],"trial_type":"image-multi-choice","trial_index":16,"time_elapsed":182968,"internal_node_id":"0.0-1.0-15.0"},{"rt":6833,"responses":"{\"Q0\":\"Vesper Sparrow\"}","bird":["Vesper Sparrow"],"family":["New World Sparrows and Allies"],"class":["898"],"trial_type":"image-multi-choice","trial_index":17,"time_elapsed":190819,"internal_node_id":"0.0-1.0-16.0"},{"rt":9857,"responses":"{\"Q0\":\"Tennessee Warbler\"}","bird":["Tennessee Warbler"],"family":["Wood-Warblers"],"class":["866"],"trial_type":"image-multi-choice","trial_index":18,"time_elapsed":201693,"internal_node_id":"0.0-1.0-17.0"},{"rt":8820,"responses":"{\"Q0\":\"Lincoln's Sparrow\"}","bird":["Vesper Sparrow"],"family":["New World Sparrows and Allies"],"class":["898"],"trial_type":"image-multi-choice","trial_index":19,"time_elapsed":211537,"internal_node_id":"0.0-1.0-18.0"},{"rt":4291,"responses":"{\"Q0\":\"Fox Sparrow\"}","bird":["Song Sparrow"],"family":["New World Sparrows and Allies"],"class":["902"],"trial_type":"image-multi-choice","trial_index":20,"time_elapsed":216847,"internal_node_id":"0.0-1.0-19.0"},{"rt":8167,"responses":"{\"Q0\":\"Black-and-white Warbler\"}","bird":["Magnolia Warbler"],"family":["Wood-Warblers"],"class":["758"],"trial_type":"image-multi-choice","trial_index":21,"time_elapsed":226029,"internal_node_id":"0.0-1.0-20.0"},{"rt":5563,"responses":"{\"Q0\":\"Nashville Warbler\"}","bird":["Orange-crowned Warbler"],"family":["Wood-Warblers"],"class":["867"],"trial_type":"image-multi-choice","trial_index":22,"time_elapsed":232610,"internal_node_id":"0.0-1.0-21.0"},{"rt":5612,"responses":"{\"Q0\":\"Blackburnian Warbler\"}","bird":["Townsend's Warbler"],"family":["Wood-Warblers"],"class":["881"],"trial_type":"image-multi-choice","trial_index":23,"time_elapsed":239241,"internal_node_id":"0.0-1.0-22.0"},{"rt":4770,"responses":"{\"Q0\":\"Ovenbird\"}","bird":["Ovenbird"],"family":["Wood-Warblers"],"class":["860"],"trial_type":"image-multi-choice","trial_index":24,"time_elapsed":245030,"internal_node_id":"0.0-1.0-23.0"},{"rt":3699,"responses":"{\"Q0\":\"Swamp Sparrow\"}","bird":["Lincoln's Sparrow"],"family":["New World Sparrows and Allies"],"class":["903"],"trial_type":"image-multi-choice","trial_index":25,"time_elapsed":249749,"internal_node_id":"0.0-1.0-24.0"},{"rt":3863,"responses":"{\"Q0\":\"White-throated Sparrow\"}","bird":["White-throated Sparrow"],"family":["New World Sparrows and Allies"],"class":["764"],"trial_type":"image-multi-choice","trial_index":26,"time_elapsed":254630,"internal_node_id":"0.0-1.0-25.0"},{"rt":3375,"responses":"{\"Q0\":\"Ovenbird\"}","bird":["Ovenbird"],"family":["Wood-Warblers"],"class":["860"],"trial_type":"image-multi-choice","trial_index":27,"time_elapsed":259024,"internal_node_id":"0.0-1.0-26.0"},{"rt":3877,"responses":"{\"Q0\":\"White-crowned Sparrow\"}","bird":["Chipping Sparrow"],"family":["New World Sparrows and Allies"],"class":["769"],"trial_type":"image-multi-choice","trial_index":28,"time_elapsed":263920,"internal_node_id":"0.0-1.0-27.0"},{"rt":4441,"responses":"{\"Q0\":\"Fox Sparrow\"}","bird":["Fox Sparrow"],"family":["New World Sparrows and Allies"],"class":["901"],"trial_type":"image-multi-choice","trial_index":29,"time_elapsed":269380,"internal_node_id":"0.0-1.0-28.0"},{"rt":6416,"responses":"{\"Q0\":\"Magnolia Warbler\"}","bird":["Magnolia Warbler"],"family":["Wood-Warblers"],"class":["758"],"trial_type":"image-multi-choice","trial_index":30,"time_elapsed":276816,"internal_node_id":"0.0-1.0-29.0"},{"rt":4615,"responses":"{\"Q0\":\"Northern Waterthrush\"}","bird":["Northern Waterthrush"],"family":["Wood-Warblers"],"class":["862"],"trial_type":"image-multi-choice","trial_index":31,"time_elapsed":282441,"internal_node_id":"0.0-1.0-30.0"},{"rt":4155,"responses":"{\"Q0\":\"Tennessee Warbler\"}","bird":["Tennessee Warbler"],"family":["Wood-Warblers"],"class":["866"],"trial_type":"image-multi-choice","trial_index":32,"time_elapsed":287617,"internal_node_id":"0.0-1.0-31.0"},{"rt":5501,"responses":"{\"Q0\":\"Magnolia Warbler\"}","bird":["Magnolia Warbler"],"family":["Wood-Warblers"],"class":["758"],"trial_type":"image-multi-choice","trial_index":33,"time_elapsed":294137,"internal_node_id":"0.0-1.0-32.0"},{"rt":4684,"responses":"{\"Q0\":\"Song Sparrow\"}","bird":["Song Sparrow"],"family":["New World Sparrows and Allies"],"class":["902"],"trial_type":"image-multi-choice","trial_index":34,"time_elapsed":299834,"internal_node_id":"0.0-1.0-33.0"},{"rt":5485,"responses":"{\"Q0\":\"Lark Sparrow\"}","bird":["Lark Sparrow"],"family":["New World Sparrows and Allies"],"class":["899"],"trial_type":"image-multi-choice","trial_index":35,"time_elapsed":306334,"internal_node_id":"0.0-1.0-34.0"},{"rt":5329,"responses":"{\"Q0\":\"Nashville Warbler\"}","bird":["Nashville Warbler"],"family":["Wood-Warblers"],"class":["868"],"trial_type":"image-multi-choice","trial_index":36,"time_elapsed":312682,"internal_node_id":"0.0-1.0-35.0"},{"rt":4095,"responses":"{\"Q0\":\"Northern Waterthrush\"}","bird":["Northern Waterthrush"],"family":["Wood-Warblers"],"class":["862"],"trial_type":"image-multi-choice","trial_index":37,"time_elapsed":317796,"internal_node_id":"0.0-1.0-36.0"},{"rt":6784,"responses":"{\"Q0\":\"Chipping Sparrow\"}","bird":["Chipping Sparrow"],"family":["New World Sparrows and Allies"],"class":["769"],"trial_type":"image-multi-choice","trial_index":38,"time_elapsed":325600,"internal_node_id":"0.0-1.0-37.0"},{"rt":2959,"responses":"{\"Q0\":\"Yellow Warbler\"}","bird":["Yellow Warbler"],"family":["Wood-Warblers"],"class":["875"],"trial_type":"image-multi-choice","trial_index":39,"time_elapsed":329577,"internal_node_id":"0.0-1.0-38.0"},{"rt":3864,"responses":"{\"Q0\":\"Ovenbird\"}","bird":["Ovenbird"],"family":["Wood-Warblers"],"class":["860"],"trial_type":"image-multi-choice","trial_index":40,"time_elapsed":334458,"internal_node_id":"0.0-1.0-39.0"},{"rt":3917,"responses":"{\"Q0\":\"Black-and-white Warbler\"}","bird":["Black-and-white Warbler"],"family":["Wood-Warblers"],"class":["864"],"trial_type":"image-multi-choice","trial_index":41,"time_elapsed":339394,"internal_node_id":"0.0-1.0-40.0"},{"rt":5121,"responses":"{\"Q0\":\"Tennessee Warbler\"}","bird":["Tennessee Warbler"],"family":["Wood-Warblers"],"class":["866"],"trial_type":"image-multi-choice","trial_index":42,"time_elapsed":345536,"internal_node_id":"0.0-1.0-41.0"},{"rt":5673,"responses":"{\"Q0\":\"Fox Sparrow\"}","bird":["Song Sparrow"],"family":["New World Sparrows and Allies"],"class":["902"],"trial_type":"image-multi-choice","trial_index":43,"time_elapsed":352227,"internal_node_id":"0.0-1.0-42.0"},{"rt":4646,"responses":"{\"Q0\":\"Blackburnian Warbler\"}","bird":["Blackburnian Warbler"],"family":["Wood-Warblers"],"class":["874"],"trial_type":"image-multi-choice","trial_index":44,"time_elapsed":357892,"internal_node_id":"0.0-1.0-43.0"},{"rt":4206,"responses":"{\"Q0\":\"Black-and-white Warbler\"}","bird":["Black-and-white Warbler"],"family":["Wood-Warblers"],"class":["864"],"trial_type":"image-multi-choice","trial_index":45,"time_elapsed":363110,"internal_node_id":"0.0-1.0-44.0"},{"rt":7294,"responses":"{\"Q0\":\"Magnolia Warbler\"}","bird":["Magnolia Warbler"],"family":["Wood-Warblers"],"class":["758"],"trial_type":"image-multi-choice","trial_index":46,"time_elapsed":371422,"internal_node_id":"0.0-1.0-45.0"},{"rt":3283,"responses":"{\"Q0\":\"Ovenbird\"}","bird":["Ovenbird"],"family":["Wood-Warblers"],"class":["860"],"trial_type":"image-multi-choice","trial_index":47,"time_elapsed":375723,"internal_node_id":"0.0-1.0-46.0"},{"rt":5195,"responses":"{\"Q0\":\"Vesper Sparrow\"}","bird":["Vesper Sparrow"],"family":["New World Sparrows and Allies"],"class":["898"],"trial_type":"image-multi-choice","trial_index":48,"time_elapsed":381937,"internal_node_id":"0.0-1.0-47.0"},{"rt":4941,"responses":"{\"Q0\":\"Lark Sparrow\"}","bird":["Lark Sparrow"],"family":["New World Sparrows and Allies"],"class":["899"],"trial_type":"image-multi-choice","trial_index":49,"time_elapsed":387897,"internal_node_id":"0.0-1.0-48.0"},{"rt":12675,"responses":"{\"Q0\":\"Ovenbird\"}","bird":["Black-and-white Warbler"],"family":["Wood-Warblers"],"class":["864"],"trial_type":"image-multi-choice","trial_index":50,"time_elapsed":401597,"internal_node_id":"0.0-1.0-49.0"},{"rt":12222,"responses":"{\"Q0\":\"Townsend's Warbler\"}","bird":["Townsend's Warbler"],"family":["Wood-Warblers"],"class":["881"],"trial_type":"image-multi-choice","trial_index":51,"time_elapsed":414838,"internal_node_id":"0.0-1.0-50.0"},{"rt":4666,"responses":"{\"Q0\":\"Nashville Warbler\"}","bird":["Nashville Warbler"],"family":["Wood-Warblers"],"class":["868"],"trial_type":"image-multi-choice","trial_index":52,"time_elapsed":420523,"internal_node_id":"0.0-1.0-51.0"},{"rt":5640,"responses":"{\"Q0\":\"White-crowned Sparrow\"}","bird":["Chipping Sparrow"],"family":["New World Sparrows and Allies"],"class":["769"],"trial_type":"image-multi-choice","trial_index":53,"time_elapsed":427175,"internal_node_id":"0.0-1.0-52.0"},{"rt":7486,"responses":"{\"Q0\":\"Swamp Sparrow\"}","bird":["Swamp Sparrow"],"family":["New World Sparrows and Allies"],"class":["904"],"trial_type":"image-multi-choice","trial_index":54,"time_elapsed":435674,"internal_node_id":"0.0-1.0-53.0"},{"rt":3781,"responses":"{\"Q0\":\"White-crowned Sparrow\"}","bird":["White-crowned Sparrow"],"family":["New World Sparrows and Allies"],"class":["766"],"trial_type":"image-multi-choice","trial_index":55,"time_elapsed":440465,"internal_node_id":"0.0-1.0-54.0"},{"rt":2998,"responses":"{\"Q0\":\"Black-and-white Warbler\"}","bird":["Black-and-white Warbler"],"family":["Wood-Warblers"],"class":["864"],"trial_type":"image-multi-choice","trial_index":56,"time_elapsed":444482,"internal_node_id":"0.0-1.0-55.0"},{"rt":3884,"responses":"{\"Q0\":\"Tennessee Warbler\"}","bird":["Tennessee Warbler"],"family":["Wood-Warblers"],"class":["866"],"trial_type":"image-multi-choice","trial_index":57,"time_elapsed":449386,"internal_node_id":"0.0-1.0-56.0"},{"rt":5377,"responses":"{\"Q0\":\"Lark Sparrow\"}","bird":["Townsend's Warbler"],"family":["Wood-Warblers"],"class":["881"],"trial_type":"image-multi-choice","trial_index":58,"time_elapsed":455782,"internal_node_id":"0.0-1.0-57.0"},{"rt":4808,"responses":"{\"Q0\":\"Orange-crowned Warbler\"}","bird":["Nashville Warbler"],"family":["Wood-Warblers"],"class":["868"],"trial_type":"image-multi-choice","trial_index":59,"time_elapsed":461610,"internal_node_id":"0.0-1.0-58.0"},{"rt":4329,"responses":"{\"Q0\":\"Lincoln's Sparrow\"}","bird":["Lincoln's Sparrow"],"family":["New World Sparrows and Allies"],"class":["903"],"trial_type":"image-multi-choice","trial_index":60,"time_elapsed":489919,"internal_node_id":"0.0-1.0-59.0"},{"rt":8214,"responses":"{\"Q0\":\"Song Sparrow\"}","bird":["Song Sparrow"],"family":["New World Sparrows and Allies"],"class":["902"],"trial_type":"image-multi-choice","trial_index":61,"time_elapsed":499152,"internal_node_id":"0.0-1.0-60.0"},{"rt":3384,"responses":"{\"Q0\":\"Yellow Warbler\"}","bird":["Yellow Warbler"],"family":["Wood-Warblers"],"class":["875"],"trial_type":"image-multi-choice","trial_index":62,"time_elapsed":503557,"internal_node_id":"0.0-1.0-61.0"},{"rt":3160,"responses":"{\"Q0\":\"White-crowned Sparrow\"}","bird":["White-throated Sparrow"],"family":["New World Sparrows and Allies"],"class":["764"],"trial_type":"image-multi-choice","trial_index":63,"time_elapsed":507736,"internal_node_id":"0.0-1.0-62.0"},{"rt":2986,"responses":"{\"Q0\":\"Tennessee Warbler\"}","bird":["Tennessee Warbler"],"family":["Wood-Warblers"],"class":["866"],"trial_type":"image-multi-choice","trial_index":64,"time_elapsed":511744,"internal_node_id":"0.0-1.0-63.0"},{"rt":4078,"responses":"{\"Q0\":\"Lincoln's Sparrow\"}","bird":["Lincoln's Sparrow"],"family":["New World Sparrows and Allies"],"class":["903"],"trial_type":"image-multi-choice","trial_index":65,"time_elapsed":516841,"internal_node_id":"0.0-1.0-64.0"},{"rt":4199,"responses":"{\"Q0\":\"Blackburnian Warbler\"}","bird":["Blackburnian Warbler"],"family":["Wood-Warblers"],"class":["874"],"trial_type":"image-multi-choice","trial_index":66,"time_elapsed":522059,"internal_node_id":"0.0-1.0-65.0"},{"rt":5328,"responses":"{\"Q0\":\"Northern Waterthrush\"}","bird":["Northern Waterthrush"],"family":["Wood-Warblers"],"class":["862"],"trial_type":"image-multi-choice","trial_index":67,"time_elapsed":528405,"internal_node_id":"0.0-1.0-66.0"},{"rt":2496,"responses":"{\"Q0\":\"Yellow Warbler\"}","bird":["Yellow Warbler"],"family":["Wood-Warblers"],"class":["875"],"trial_type":"image-multi-choice","trial_index":68,"time_elapsed":531922,"internal_node_id":"0.0-1.0-67.0"},{"rt":4270,"responses":"{\"Q0\":\"Lincoln's Sparrow\"}","bird":["Lincoln's Sparrow"],"family":["New World Sparrows and Allies"],"class":["903"],"trial_type":"image-multi-choice","trial_index":69,"time_elapsed":537210,"internal_node_id":"0.0-1.0-68.0"},{"rt":5705,"responses":"{\"Q0\":\"Lark Sparrow\"}","bird":["American Tree Sparrow"],"family":["New World Sparrows and Allies"],"class":["894"],"trial_type":"image-multi-choice","trial_index":70,"time_elapsed":543933,"internal_node_id":"0.0-1.0-69.0"},{"rt":4503,"responses":"{\"Q0\":\"Orange-crowned Warbler\"}","bird":["Orange-crowned Warbler"],"family":["Wood-Warblers"],"class":["867"],"trial_type":"image-multi-choice","trial_index":71,"time_elapsed":549454,"internal_node_id":"0.0-1.0-70.0"},{"rt":4200,"responses":"{\"Q0\":\"Lincoln's Sparrow\"}","bird":["Lincoln's Sparrow"],"family":["New World Sparrows and Allies"],"class":["903"],"trial_type":"image-multi-choice","trial_index":72,"time_elapsed":554672,"internal_node_id":"0.0-1.0-71.0"},{"rt":5216,"responses":"{\"Q0\":\"Lark Sparrow\"}","bird":["Magnolia Warbler"],"family":["Wood-Warblers"],"class":["758"],"trial_type":"image-multi-choice","trial_index":73,"time_elapsed":560905,"internal_node_id":"0.0-1.0-72.0"},{"rt":3660,"responses":"{\"Q0\":\"Lincoln's Sparrow\"}","bird":["Lincoln's Sparrow"],"family":["New World Sparrows and Allies"],"class":["903"],"trial_type":"image-multi-choice","trial_index":74,"time_elapsed":565584,"internal_node_id":"0.0-1.0-73.0"},{"rt":3128,"responses":"{\"Q0\":\"Yellow Warbler\"}","bird":["Yellow Warbler"],"family":["Wood-Warblers"],"class":["875"],"trial_type":"image-multi-choice","trial_index":75,"time_elapsed":569732,"internal_node_id":"0.0-1.0-74.0"},{"rt":3545,"responses":"{\"Q0\":\"White-crowned Sparrow\"}","bird":["White-crowned Sparrow"],"family":["New World Sparrows and Allies"],"class":["766"],"trial_type":"image-multi-choice","trial_index":76,"time_elapsed":574299,"internal_node_id":"0.0-1.0-75.0"},{"rt":6915,"responses":"{\"Q0\":\"Nashville Warbler\"}","bird":["Nashville Warbler"],"family":["Wood-Warblers"],"class":["868"],"trial_type":"image-multi-choice","trial_index":77,"time_elapsed":582232,"internal_node_id":"0.0-1.0-76.0"},{"rt":4625,"responses":"{\"Q0\":\"White-crowned Sparrow\"}","bird":["American Tree Sparrow"],"family":["New World Sparrows and Allies"],"class":["894"],"trial_type":"image-multi-choice","trial_index":78,"time_elapsed":587875,"internal_node_id":"0.0-1.0-77.0"},{"rt":3581,"responses":"{\"Q0\":\"Blackburnian Warbler\"}","bird":["Townsend's Warbler"],"family":["Wood-Warblers"],"class":["881"],"trial_type":"image-multi-choice","trial_index":79,"time_elapsed":592474,"internal_node_id":"0.0-1.0-78.0"},{"rt":3832,"responses":"{\"Q0\":\"Lark Sparrow\"}","bird":["Chipping Sparrow"],"family":["New World Sparrows and Allies"],"class":["769"],"trial_type":"image-multi-choice","trial_index":80,"time_elapsed":597325,"internal_node_id":"0.0-1.0-79.0"},{"rt":3872,"responses":"{\"Q0\":\"White-crowned Sparrow\"}","bird":["White-throated Sparrow"],"family":["New World Sparrows and Allies"],"class":["764"],"trial_type":"image-multi-choice","trial_index":81,"time_elapsed":602217,"internal_node_id":"0.0-1.0-80.0"},{"rt":3149,"responses":"{\"Q0\":\"Ovenbird\"}","bird":["Ovenbird"],"family":["Wood-Warblers"],"class":["860"],"trial_type":"image-multi-choice","trial_index":82,"time_elapsed":606386,"internal_node_id":"0.0-1.0-81.0"},{"rt":3159,"responses":"{\"Q0\":\"White-crowned Sparrow\"}","bird":["White-crowned Sparrow"],"family":["New World Sparrows and Allies"],"class":["766"],"trial_type":"image-multi-choice","trial_index":83,"time_elapsed":610566,"internal_node_id":"0.0-1.0-82.0"},{"rt":4769,"responses":"{\"Q0\":\"Magnolia Warbler\"}","bird":["Magnolia Warbler"],"family":["Wood-Warblers"],"class":["758"],"trial_type":"image-multi-choice","trial_index":84,"time_elapsed":616354,"internal_node_id":"0.0-1.0-83.0"},{"rt":2778,"responses":"{\"Q0\":\"Yellow Warbler\"}","bird":["Yellow Warbler"],"family":["Wood-Warblers"],"class":["875"],"trial_type":"image-multi-choice","trial_index":85,"time_elapsed":620150,"internal_node_id":"0.0-1.0-84.0"},{"rt":3392,"responses":"{\"Q0\":\"Lark Sparrow\"}","bird":["Lark Sparrow"],"family":["New World Sparrows and Allies"],"class":["899"],"trial_type":"image-multi-choice","trial_index":86,"time_elapsed":624562,"internal_node_id":"0.0-1.0-85.0"},{"rt":3874,"responses":"{\"Q0\":\"Lincoln's Sparrow\"}","bird":["Lincoln's Sparrow"],"family":["New World Sparrows and Allies"],"class":["903"],"trial_type":"image-multi-choice","trial_index":87,"time_elapsed":629454,"internal_node_id":"0.0-1.0-86.0"},{"rt":3496,"responses":"{\"Q0\":\"Black-and-white Warbler\"}","bird":["Black-and-white Warbler"],"family":["Wood-Warblers"],"class":["864"],"trial_type":"image-multi-choice","trial_index":88,"time_elapsed":633967,"internal_node_id":"0.0-1.0-87.0"},{"rt":3085,"responses":"{\"Q0\":\"White-crowned Sparrow\"}","bird":["White-crowned Sparrow"],"family":["New World Sparrows and Allies"],"class":["766"],"trial_type":"image-multi-choice","trial_index":89,"time_elapsed":638067,"internal_node_id":"0.0-1.0-88.0"},{"rt":5902,"responses":"{\"Q0\":\"Blackburnian Warbler\"}","bird":["Townsend's Warbler"],"family":["Wood-Warblers"],"class":["881"],"trial_type":"image-multi-choice","trial_index":90,"time_elapsed":644982,"internal_node_id":"0.0-1.0-89.0"},{"rt":2856,"responses":"{\"Q0\":\"White-throated Sparrow\"}","bird":["White-throated Sparrow"],"family":["New World Sparrows and Allies"],"class":["764"],"trial_type":"image-multi-choice","trial_index":91,"time_elapsed":648857,"internal_node_id":"0.0-1.0-90.0"},{"rt":5757,"responses":"{\"Q0\":\"Magnolia Warbler\"}","bird":["Magnolia Warbler"],"family":["Wood-Warblers"],"class":["758"],"trial_type":"image-multi-choice","trial_index":92,"time_elapsed":655632,"internal_node_id":"0.0-1.0-91.0"},{"rt":3966,"responses":"{\"Q0\":\"Lincoln's Sparrow\"}","bird":["Lincoln's Sparrow"],"family":["New World Sparrows and Allies"],"class":["903"],"trial_type":"image-multi-choice","trial_index":93,"time_elapsed":660614,"internal_node_id":"0.0-1.0-92.0"},{"rt":10200,"responses":"{\"Q0\":\"Townsend's Warbler\"}","bird":["Blackburnian Warbler"],"family":["Wood-Warblers"],"class":["874"],"trial_type":"image-multi-choice","trial_index":94,"time_elapsed":671834,"internal_node_id":"0.0-1.0-93.0"},{"rt":6060,"responses":"{\"Q0\":\"Vesper Sparrow\"}","bird":["Vesper Sparrow"],"family":["New World Sparrows and Allies"],"class":["898"],"trial_type":"image-multi-choice","trial_index":95,"time_elapsed":678904,"internal_node_id":"0.0-1.0-94.0"},{"rt":3751,"responses":"{\"Q0\":\"Lark Sparrow\"}","bird":["Lark Sparrow"],"family":["New World Sparrows and Allies"],"class":["899"],"trial_type":"image-multi-choice","trial_index":96,"time_elapsed":683663,"internal_node_id":"0.0-1.0-95.0"},{"rt":4592,"responses":"{\"Q0\":\"Swamp Sparrow\"}","bird":["Swamp Sparrow"],"family":["New World Sparrows and Allies"],"class":["904"],"trial_type":"image-multi-choice","trial_index":97,"time_elapsed":689275,"internal_node_id":"0.0-1.0-96.0"},{"rt":3785,"responses":"{\"Q0\":\"Northern Waterthrush\"}","bird":["Northern Waterthrush"],"family":["Wood-Warblers"],"class":["862"],"trial_type":"image-multi-choice","trial_index":98,"time_elapsed":694078,"internal_node_id":"0.0-1.0-97.0"},{"rt":3346,"responses":"{\"Q0\":\"Ovenbird\"}","bird":["Ovenbird"],"family":["Wood-Warblers"],"class":["860"],"trial_type":"image-multi-choice","trial_index":99,"time_elapsed":698433,"internal_node_id":"0.0-1.0-98.0"},{"rt":4338,"responses":"{\"Q0\":\"White-throated Sparrow\"}","bird":["White-throated Sparrow"],"family":["New World Sparrows and Allies"],"class":["764"],"trial_type":"image-multi-choice","trial_index":100,"time_elapsed":703790,"internal_node_id":"0.0-1.0-99.0"},{"rt":4018,"responses":"{\"Q0\":\"Nashville Warbler\"}","bird":["Nashville Warbler"],"family":["Wood-Warblers"],"class":["868"],"trial_type":"image-multi-choice","trial_index":101,"time_elapsed":708825,"internal_node_id":"0.0-1.0-100.0"},{"rt":4995,"responses":"{\"Q0\":\"Townsend's Warbler\"}","bird":["Magnolia Warbler"],"family":["Wood-Warblers"],"class":["758"],"trial_type":"image-multi-choice","trial_index":102,"time_elapsed":714839,"internal_node_id":"0.0-1.0-101.0"},{"rt":3881,"responses":"{\"Q0\":\"Swamp Sparrow\"}","bird":["Swamp Sparrow"],"family":["New World Sparrows and Allies"],"class":["904"],"trial_type":"image-multi-choice","trial_index":103,"time_elapsed":719737,"internal_node_id":"0.0-1.0-102.0"},{"rt":4750,"responses":"{\"Q0\":\"Blackburnian Warbler\"}","bird":["Blackburnian Warbler"],"family":["Wood-Warblers"],"class":["874"],"trial_type":"image-multi-choice","trial_index":104,"time_elapsed":725496,"internal_node_id":"0.0-1.0-103.0"},{"rt":3477,"responses":"{\"Q0\":\"Northern Waterthrush\"}","bird":["Northern Waterthrush"],"family":["Wood-Warblers"],"class":["862"],"trial_type":"image-multi-choice","trial_index":105,"time_elapsed":729991,"internal_node_id":"0.0-1.0-104.0"},{"rt":3651,"responses":"{\"Q0\":\"Lincoln's Sparrow\"}","bird":["Swamp Sparrow"],"family":["New World Sparrows and Allies"],"class":["904"],"trial_type":"image-multi-choice","trial_index":106,"time_elapsed":734659,"internal_node_id":"0.0-1.0-105.0"},{"rt":3915,"responses":"{\"Q0\":\"Song Sparrow\"}","bird":["Song Sparrow"],"family":["New World Sparrows and Allies"],"class":["902"],"trial_type":"image-multi-choice","trial_index":107,"time_elapsed":739593,"internal_node_id":"0.0-1.0-106.0"},{"rt":3283,"responses":"{\"Q0\":\"Black-and-white Warbler\"}","bird":["Black-and-white Warbler"],"family":["Wood-Warblers"],"class":["864"],"trial_type":"image-multi-choice","trial_index":108,"time_elapsed":743894,"internal_node_id":"0.0-1.0-107.0"},{"rt":9762,"responses":"{\"Q0\":\"Townsend's Warbler\"}","bird":["Blackburnian Warbler"],"family":["Wood-Warblers"],"class":["874"],"trial_type":"image-multi-choice","trial_index":109,"time_elapsed":754675,"internal_node_id":"0.0-1.0-108.0"},{"rt":5007,"responses":"{\"Q0\":\"Nashville Warbler\"}","bird":["Nashville Warbler"],"family":["Wood-Warblers"],"class":["868"],"trial_type":"image-multi-choice","trial_index":110,"time_elapsed":760701,"internal_node_id":"0.0-1.0-109.0"},{"rt":4314,"responses":"{\"Q0\":\"Lark Sparrow\"}","bird":["Chipping Sparrow"],"family":["New World Sparrows and Allies"],"class":["769"],"trial_type":"image-multi-choice","trial_index":111,"time_elapsed":766035,"internal_node_id":"0.0-1.0-110.0"},{"rt":4647,"responses":"{\"Q0\":\"American Tree Sparrow\"}","bird":["American Tree Sparrow"],"family":["New World Sparrows and Allies"],"class":["894"],"trial_type":"image-multi-choice","trial_index":112,"time_elapsed":771700,"internal_node_id":"0.0-1.0-111.0"},{"rt":4262,"responses":"{\"Q0\":\"Northern Waterthrush\"}","bird":["Northern Waterthrush"],"family":["Wood-Warblers"],"class":["862"],"trial_type":"image-multi-choice","trial_index":113,"time_elapsed":776978,"internal_node_id":"0.0-1.0-112.0"},{"rt":2477,"responses":"{\"Q0\":\"Yellow Warbler\"}","bird":["Yellow Warbler"],"family":["Wood-Warblers"],"class":["875"],"trial_type":"image-multi-choice","trial_index":114,"time_elapsed":780465,"internal_node_id":"0.0-1.0-113.0"},{"rt":4996,"responses":"{\"Q0\":\"Orange-crowned Warbler\"}","bird":["Tennessee Warbler"],"family":["Wood-Warblers"],"class":["866"],"trial_type":"image-multi-choice","trial_index":115,"time_elapsed":786479,"internal_node_id":"0.0-1.0-114.0"},{"rt":4056,"responses":"{\"Q0\":\"Lincoln's Sparrow\"}","bird":["Lincoln's Sparrow"],"family":["New World Sparrows and Allies"],"class":["903"],"trial_type":"image-multi-choice","trial_index":116,"time_elapsed":791551,"internal_node_id":"0.0-1.0-115.0"},{"rt":4971,"responses":"{\"Q0\":\"Townsend's Warbler\"}","bird":["Black-and-white Warbler"],"family":["Wood-Warblers"],"class":["864"],"trial_type":"image-multi-choice","trial_index":117,"time_elapsed":797540,"internal_node_id":"0.0-1.0-116.0"},{"rt":4440,"responses":"{\"Q0\":\"Swamp Sparrow\"}","bird":["Song Sparrow"],"family":["New World Sparrows and Allies"],"class":["902"],"trial_type":"image-multi-choice","trial_index":118,"time_elapsed":802991,"internal_node_id":"0.0-1.0-117.0"},{"rt":4121,"responses":"{\"Q0\":\"Lincoln's Sparrow\"}","bird":["Lincoln's Sparrow"],"family":["New World Sparrows and Allies"],"class":["903"],"trial_type":"image-multi-choice","trial_index":119,"time_elapsed":808129,"internal_node_id":"0.0-1.0-118.0"},{"rt":5299,"responses":"{\"Q0\":\"Blackburnian Warbler\"}","bird":["Blackburnian Warbler"],"family":["Wood-Warblers"],"class":["874"],"trial_type":"image-multi-choice","trial_index":120,"time_elapsed":821436,"internal_node_id":"0.0-1.0-119.0"},{"rt":4731,"responses":"{\"Q0\":\"Nashville Warbler\"}","bird":["Nashville Warbler"],"family":["Wood-Warblers"],"class":["868"],"trial_type":"image-multi-choice","trial_index":121,"time_elapsed":827184,"internal_node_id":"0.0-1.0-120.0"},{"rt":5979,"responses":"{\"Q0\":\"Lincoln's Sparrow\"}","bird":["Vesper Sparrow"],"family":["New World Sparrows and Allies"],"class":["898"],"trial_type":"image-multi-choice","trial_index":122,"time_elapsed":834180,"internal_node_id":"0.0-1.0-121.0"},{"rt":5081,"responses":"{\"Q0\":\"Townsend's Warbler\"}","bird":["Townsend's Warbler"],"family":["Wood-Warblers"],"class":["881"],"trial_type":"image-multi-choice","trial_index":123,"time_elapsed":840281,"internal_node_id":"0.0-1.0-122.0"},{"rt":3811,"responses":"{\"Q0\":\"Fox Sparrow\"}","bird":["Song Sparrow"],"family":["New World Sparrows and Allies"],"class":["902"],"trial_type":"image-multi-choice","trial_index":124,"time_elapsed":845112,"internal_node_id":"0.0-1.0-123.0"},{"rt":4080,"responses":"{\"Q0\":\"White-throated Sparrow\"}","bird":["White-throated Sparrow"],"family":["New World Sparrows and Allies"],"class":["764"],"trial_type":"image-multi-choice","trial_index":125,"time_elapsed":850210,"internal_node_id":"0.0-1.0-124.0"},{"rt":3718,"responses":"{\"Q0\":\"Nashville Warbler\"}","bird":["Nashville Warbler"],"family":["Wood-Warblers"],"class":["868"],"trial_type":"image-multi-choice","trial_index":126,"time_elapsed":854946,"internal_node_id":"0.0-1.0-125.0"},{"rt":3186,"responses":"{\"Q0\":\"Fox Sparrow\"}","bird":["Fox Sparrow"],"family":["New World Sparrows and Allies"],"class":["901"],"trial_type":"image-multi-choice","trial_index":127,"time_elapsed":859155,"internal_node_id":"0.0-1.0-126.0"},{"rt":3245,"responses":"{\"Q0\":\"Townsend's Warbler\"}","bird":["Magnolia Warbler"],"family":["Wood-Warblers"],"class":["758"],"trial_type":"image-multi-choice","trial_index":128,"time_elapsed":863416,"internal_node_id":"0.0-1.0-127.0"},{"rt":7635,"responses":"{\"Q0\":\"Nashville Warbler\"}","bird":["Nashville Warbler"],"family":["Wood-Warblers"],"class":["868"],"trial_type":"image-multi-choice","trial_index":129,"time_elapsed":872070,"internal_node_id":"0.0-1.0-128.0"},{"rt":4097,"responses":"{\"Q0\":\"Swamp Sparrow\"}","bird":["Swamp Sparrow"],"family":["New World Sparrows and Allies"],"class":["904"],"trial_type":"image-multi-choice","trial_index":130,"time_elapsed":877184,"internal_node_id":"0.0-1.0-129.0"},{"rt":3067,"responses":"{\"Q0\":\"White-throated Sparrow\"}","bird":["White-throated Sparrow"],"family":["New World Sparrows and Allies"],"class":["764"],"trial_type":"image-multi-choice","trial_index":131,"time_elapsed":881272,"internal_node_id":"0.0-1.0-130.0"},{"rt":3945,"responses":"{\"Q0\":\"Fox Sparrow\"}","bird":["Song Sparrow"],"family":["New World Sparrows and Allies"],"class":["902"],"trial_type":"image-multi-choice","trial_index":132,"time_elapsed":886234,"internal_node_id":"0.0-1.0-131.0"},{"rt":3375,"responses":"{\"Q0\":\"Yellow Warbler\"}","bird":["Yellow Warbler"],"family":["Wood-Warblers"],"class":["875"],"trial_type":"image-multi-choice","trial_index":133,"time_elapsed":890626,"internal_node_id":"0.0-1.0-132.0"},{"rt":3650,"responses":"{\"Q0\":\"Townsend's Warbler\"}","bird":["Townsend's Warbler"],"family":["Wood-Warblers"],"class":["881"],"trial_type":"image-multi-choice","trial_index":134,"time_elapsed":895294,"internal_node_id":"0.0-1.0-133.0"},{"rt":3384,"responses":"{\"Q0\":\"Fox Sparrow\"}","bird":["Fox Sparrow"],"family":["New World Sparrows and Allies"],"class":["901"],"trial_type":"image-multi-choice","trial_index":135,"time_elapsed":899697,"internal_node_id":"0.0-1.0-134.0"},{"rt":5684,"responses":"{\"Q0\":\"White-crowned Sparrow\"}","bird":["White-crowned Sparrow"],"family":["New World Sparrows and Allies"],"class":["766"],"trial_type":"image-multi-choice","trial_index":136,"time_elapsed":906398,"internal_node_id":"0.0-1.0-135.0"},{"rt":3792,"responses":"{\"Q0\":\"Townsend's Warbler\"}","bird":["Magnolia Warbler"],"family":["Wood-Warblers"],"class":["758"],"trial_type":"image-multi-choice","trial_index":137,"time_elapsed":911208,"internal_node_id":"0.0-1.0-136.0"},{"rt":4718,"responses":"{\"Q0\":\"Blackburnian Warbler\"}","bird":["Blackburnian Warbler"],"family":["Wood-Warblers"],"class":["874"],"trial_type":"image-multi-choice","trial_index":138,"time_elapsed":916942,"internal_node_id":"0.0-1.0-137.0"},{"rt":4855,"responses":"{\"Q0\":\"Townsend's Warbler\"}","bird":["Magnolia Warbler"],"family":["Wood-Warblers"],"class":["758"],"trial_type":"image-multi-choice","trial_index":139,"time_elapsed":922807,"internal_node_id":"0.0-1.0-138.0"},{"rt":4042,"responses":"{\"Q0\":\"American Tree Sparrow\"}","bird":["Chipping Sparrow"],"family":["New World Sparrows and Allies"],"class":["769"],"trial_type":"image-multi-choice","trial_index":140,"time_elapsed":927863,"internal_node_id":"0.0-1.0-139.0"},{"rt":4534,"responses":"{\"Q0\":\"Swamp Sparrow\"}","bird":["American Tree Sparrow"],"family":["New World Sparrows and Allies"],"class":["894"],"trial_type":"image-multi-choice","trial_index":141,"time_elapsed":933415,"internal_node_id":"0.0-1.0-140.0"},{"rt":5167,"responses":"{\"Q0\":\"Orange-crowned Warbler\"}","bird":["Orange-crowned Warbler"],"family":["Wood-Warblers"],"class":["867"],"trial_type":"image-multi-choice","trial_index":142,"time_elapsed":939598,"internal_node_id":"0.0-1.0-141.0"},{"rt":3630,"responses":"{\"Q0\":\"Fox Sparrow\"}","bird":["Fox Sparrow"],"family":["New World Sparrows and Allies"],"class":["901"],"trial_type":"image-multi-choice","trial_index":143,"time_elapsed":944245,"internal_node_id":"0.0-1.0-142.0"},{"rt":2462,"responses":"{\"Q0\":\"Yellow Warbler\"}","bird":["Yellow Warbler"],"family":["Wood-Warblers"],"class":["875"],"trial_type":"image-multi-choice","trial_index":144,"time_elapsed":947726,"internal_node_id":"0.0-1.0-143.0"},{"rt":3656,"responses":"{\"Q0\":\"American Tree Sparrow\"}","bird":["American Tree Sparrow"],"family":["New World Sparrows and Allies"],"class":["894"],"trial_type":"image-multi-choice","trial_index":145,"time_elapsed":952401,"internal_node_id":"0.0-1.0-144.0"},{"rt":3760,"responses":"{\"Q0\":\"Swamp Sparrow\"}","bird":["Swamp Sparrow"],"family":["New World Sparrows and Allies"],"class":["904"],"trial_type":"image-multi-choice","trial_index":146,"time_elapsed":957180,"internal_node_id":"0.0-1.0-145.0"},{"rt":3626,"responses":"{\"Q0\":\"Lark Sparrow\"}","bird":["Lark Sparrow"],"family":["New World Sparrows and Allies"],"class":["899"],"trial_type":"image-multi-choice","trial_index":147,"time_elapsed":961814,"internal_node_id":"0.0-1.0-146.0"},{"rt":3501,"responses":"{\"Q0\":\"Lincoln's Sparrow\"}","bird":["Vesper Sparrow"],"family":["New World Sparrows and Allies"],"class":["898"],"trial_type":"image-multi-choice","trial_index":148,"time_elapsed":966333,"internal_node_id":"0.0-1.0-147.0"},{"rt":3923,"responses":"{\"Q0\":\"Fox Sparrow\"}","bird":["Fox Sparrow"],"family":["New World Sparrows and Allies"],"class":["901"],"trial_type":"image-multi-choice","trial_index":149,"time_elapsed":971274,"internal_node_id":"0.0-1.0-148.0"},{"rt":3923,"responses":"{\"Q0\":\"Swamp Sparrow\"}","bird":["Song Sparrow"],"family":["New World Sparrows and Allies"],"class":["902"],"trial_type":"image-multi-choice","trial_index":150,"time_elapsed":976215,"internal_node_id":"0.0-1.0-149.0"},{"rt":8087,"responses":"{\"Q0\":\"Blackburnian Warbler\"}","bird":["Blackburnian Warbler"],"family":["Wood-Warblers"],"class":["874"],"trial_type":"image-multi-choice","trial_index":151,"time_elapsed":985320,"internal_node_id":"0.0-1.0-150.0"},{"rt":4392,"responses":"{\"Q0\":\"Tennessee Warbler\"}","bird":["Orange-crowned Warbler"],"family":["Wood-Warblers"],"class":["867"],"trial_type":"image-multi-choice","trial_index":152,"time_elapsed":990729,"internal_node_id":"0.0-1.0-151.0"},{"rt":3669,"responses":"{\"Q0\":\"Fox Sparrow\"}","bird":["Fox Sparrow"],"family":["New World Sparrows and Allies"],"class":["901"],"trial_type":"image-multi-choice","trial_index":153,"time_elapsed":995417,"internal_node_id":"0.0-1.0-152.0"},{"rt":5121,"responses":"{\"Q0\":\"Orange-crowned Warbler\"}","bird":["Orange-crowned Warbler"],"family":["Wood-Warblers"],"class":["867"],"trial_type":"image-multi-choice","trial_index":154,"time_elapsed":1001560,"internal_node_id":"0.0-1.0-153.0"},{"rt":3853,"responses":"{\"Q0\":\"Blackburnian Warbler\"}","bird":["Townsend's Warbler"],"family":["Wood-Warblers"],"class":["881"],"trial_type":"image-multi-choice","trial_index":155,"time_elapsed":1006431,"internal_node_id":"0.0-1.0-154.0"},{"rt":2959,"responses":"{\"Q0\":\"Ovenbird\"}","bird":["Ovenbird"],"family":["Wood-Warblers"],"class":["860"],"trial_type":"image-multi-choice","trial_index":156,"time_elapsed":1010408,"internal_node_id":"0.0-1.0-155.0"},{"rt":5339,"responses":"{\"Q0\":\"Orange-crowned Warbler\"}","bird":["Nashville Warbler"],"family":["Wood-Warblers"],"class":["868"],"trial_type":"image-multi-choice","trial_index":157,"time_elapsed":1016764,"internal_node_id":"0.0-1.0-156.0"},{"rt":5536,"responses":"{\"Q0\":\"Swamp Sparrow\"}","bird":["Song Sparrow"],"family":["New World Sparrows and Allies"],"class":["902"],"trial_type":"image-multi-choice","trial_index":158,"time_elapsed":1023314,"internal_node_id":"0.0-1.0-157.0"},{"rt":2350,"responses":"{\"Q0\":\"Yellow Warbler\"}","bird":["Yellow Warbler"],"family":["Wood-Warblers"],"class":["875"],"trial_type":"image-multi-choice","trial_index":159,"time_elapsed":1026679,"internal_node_id":"0.0-1.0-158.0"},{"rt":3203,"responses":"{\"Q0\":\"Fox Sparrow\"}","bird":["Fox Sparrow"],"family":["New World Sparrows and Allies"],"class":["901"],"trial_type":"image-multi-choice","trial_index":160,"time_elapsed":1030900,"internal_node_id":"0.0-1.0-159.0"},{"rt":3620,"responses":"{\"Q0\":\"Black-and-white Warbler\"}","bird":["Black-and-white Warbler"],"family":["Wood-Warblers"],"class":["864"],"trial_type":"image-multi-choice","trial_index":161,"time_elapsed":1035538,"internal_node_id":"0.0-1.0-160.0"},{"rt":6446,"responses":"{\"Q0\":\"Orange-crowned Warbler\"}","bird":["Orange-crowned Warbler"],"family":["Wood-Warblers"],"class":["867"],"trial_type":"image-multi-choice","trial_index":162,"time_elapsed":1043002,"internal_node_id":"0.0-1.0-161.0"},{"rt":6008,"responses":"{\"Q0\":\"Chipping Sparrow\"}","bird":["American Tree Sparrow"],"family":["New World Sparrows and Allies"],"class":["894"],"trial_type":"image-multi-choice","trial_index":163,"time_elapsed":1050029,"internal_node_id":"0.0-1.0-162.0"},{"rt":9228,"responses":"{\"Q0\":\"Townsend's Warbler\"}","bird":["Townsend's Warbler"],"family":["Wood-Warblers"],"class":["881"],"trial_type":"image-multi-choice","trial_index":164,"time_elapsed":1060269,"internal_node_id":"0.0-1.0-163.0"},{"rt":3588,"responses":"{\"Q0\":\"Song Sparrow\"}","bird":["Song Sparrow"],"family":["New World Sparrows and Allies"],"class":["902"],"trial_type":"image-multi-choice","trial_index":165,"time_elapsed":1064876,"internal_node_id":"0.0-1.0-164.0"},{"rt":7755,"responses":"{\"Q0\":\"Nashville Warbler\"}","bird":["Nashville Warbler"],"family":["Wood-Warblers"],"class":["868"],"trial_type":"image-multi-choice","trial_index":166,"time_elapsed":1073649,"internal_node_id":"0.0-1.0-165.0"},{"rt":4046,"responses":"{\"Q0\":\"Tennessee Warbler\"}","bird":["Tennessee Warbler"],"family":["Wood-Warblers"],"class":["866"],"trial_type":"image-multi-choice","trial_index":167,"time_elapsed":1078713,"internal_node_id":"0.0-1.0-166.0"},{"rt":15629,"responses":"{\"Q0\":\"Swamp Sparrow\"}","bird":["Chipping Sparrow"],"family":["New World Sparrows and Allies"],"class":["769"],"trial_type":"image-multi-choice","trial_index":168,"time_elapsed":1095362,"internal_node_id":"0.0-1.0-167.0"},{"rt":3160,"responses":"{\"Q0\":\"Ovenbird\"}","bird":["Ovenbird"],"family":["Wood-Warblers"],"class":["860"],"trial_type":"image-multi-choice","trial_index":169,"time_elapsed":1099540,"internal_node_id":"0.0-1.0-168.0"},{"rt":3206,"responses":"{\"Q0\":\"White-throated Sparrow\"}","bird":["White-throated Sparrow"],"family":["New World Sparrows and Allies"],"class":["764"],"trial_type":"image-multi-choice","trial_index":170,"time_elapsed":1103761,"internal_node_id":"0.0-1.0-169.0"},{"rt":3942,"responses":"{\"Q0\":\"Fox Sparrow\"}","bird":["Fox Sparrow"],"family":["New World Sparrows and Allies"],"class":["901"],"trial_type":"image-multi-choice","trial_index":171,"time_elapsed":1108715,"internal_node_id":"0.0-1.0-170.0"},{"rt":4495,"responses":"{\"Q0\":\"Townsend's Warbler\"}","bird":["Blackburnian Warbler"],"family":["Wood-Warblers"],"class":["874"],"trial_type":"image-multi-choice","trial_index":172,"time_elapsed":1114228,"internal_node_id":"0.0-1.0-171.0"},{"rt":4807,"responses":"{\"Q0\":\"American Tree Sparrow\"}","bird":["American Tree Sparrow"],"family":["New World Sparrows and Allies"],"class":["894"],"trial_type":"image-multi-choice","trial_index":173,"time_elapsed":1120052,"internal_node_id":"0.0-1.0-172.0"},{"rt":4862,"responses":"{\"Q0\":\"Swamp Sparrow\"}","bird":["Swamp Sparrow"],"family":["New World Sparrows and Allies"],"class":["904"],"trial_type":"image-multi-choice","trial_index":174,"time_elapsed":1125932,"internal_node_id":"0.0-1.0-173.0"},{"rt":4493,"responses":"{\"Q0\":\"Blackburnian Warbler\"}","bird":["Townsend's Warbler"],"family":["Wood-Warblers"],"class":["881"],"trial_type":"image-multi-choice","trial_index":175,"time_elapsed":1131443,"internal_node_id":"0.0-1.0-174.0"},{"rt":7143,"responses":"{\"Q0\":\"Orange-crowned Warbler\"}","bird":["Tennessee Warbler"],"family":["Wood-Warblers"],"class":["866"],"trial_type":"image-multi-choice","trial_index":176,"time_elapsed":1139604,"internal_node_id":"0.0-1.0-175.0"},{"rt":4248,"responses":"{\"Q0\":\"Northern Waterthrush\"}","bird":["Northern Waterthrush"],"family":["Wood-Warblers"],"class":["862"],"trial_type":"image-multi-choice","trial_index":177,"time_elapsed":1144867,"internal_node_id":"0.0-1.0-176.0"},{"rt":5655,"responses":"{\"Q0\":\"Lincoln's Sparrow\"}","bird":["Swamp Sparrow"],"family":["New World Sparrows and Allies"],"class":["904"],"trial_type":"image-multi-choice","trial_index":178,"time_elapsed":1151539,"internal_node_id":"0.0-1.0-177.0"},{"rt":3251,"responses":"{\"Q0\":\"Fox Sparrow\"}","bird":["Fox Sparrow"],"family":["New World Sparrows and Allies"],"class":["901"],"trial_type":"image-multi-choice","trial_index":179,"time_elapsed":1155807,"internal_node_id":"0.0-1.0-178.0"},{"rt":4342,"responses":"{\"Q0\":\"American Tree Sparrow\"}","bird":["American Tree Sparrow"],"family":["New World Sparrows and Allies"],"class":["894"],"trial_type":"image-multi-choice","trial_index":180,"time_elapsed":1184187,"internal_node_id":"0.0-1.0-179.0"},{"rt":2932,"responses":"{\"Q0\":\"Fox Sparrow\"}","bird":["Fox Sparrow"],"family":["New World Sparrows and Allies"],"class":["901"],"trial_type":"image-multi-choice","trial_index":181,"time_elapsed":1188136,"internal_node_id":"0.0-1.0-180.0"},{"rt":3700,"responses":"{\"Q0\":\"Lincoln's Sparrow\"}","bird":["Vesper Sparrow"],"family":["New World Sparrows and Allies"],"class":["898"],"trial_type":"image-multi-choice","trial_index":182,"time_elapsed":1192852,"internal_node_id":"0.0-1.0-181.0"},{"rt":6825,"responses":"{\"Q0\":\"Swamp Sparrow\"}","bird":["Song Sparrow"],"family":["New World Sparrows and Allies"],"class":["902"],"trial_type":"image-multi-choice","trial_index":183,"time_elapsed":1200696,"internal_node_id":"0.0-1.0-182.0"},{"rt":3456,"responses":"{\"Q0\":\"Townsend's Warbler\"}","bird":["Blackburnian Warbler"],"family":["Wood-Warblers"],"class":["874"],"trial_type":"image-multi-choice","trial_index":184,"time_elapsed":1205171,"internal_node_id":"0.0-1.0-183.0"},{"rt":3488,"responses":"{\"Q0\":\"White-crowned Sparrow\"}","bird":["White-crowned Sparrow"],"family":["New World Sparrows and Allies"],"class":["766"],"trial_type":"image-multi-choice","trial_index":185,"time_elapsed":1209677,"internal_node_id":"0.0-1.0-184.0"},{"rt":3151,"responses":"{\"Q0\":\"American Tree Sparrow\"}","bird":["American Tree Sparrow"],"family":["New World Sparrows and Allies"],"class":["894"],"trial_type":"image-multi-choice","trial_index":186,"time_elapsed":1213847,"internal_node_id":"0.0-1.0-185.0"},{"rt":3132,"responses":"{\"Q0\":\"Black-and-white Warbler\"}","bird":["Black-and-white Warbler"],"family":["Wood-Warblers"],"class":["864"],"trial_type":"image-multi-choice","trial_index":187,"time_elapsed":1217994,"internal_node_id":"0.0-1.0-186.0"},{"rt":3111,"responses":"{\"Q0\":\"Lark Sparrow\"}","bird":["Lark Sparrow"],"family":["New World Sparrows and Allies"],"class":["899"],"trial_type":"image-multi-choice","trial_index":188,"time_elapsed":1222115,"internal_node_id":"0.0-1.0-187.0"},{"rt":4478,"responses":"{\"Q0\":\"Tennessee Warbler\"}","bird":["Nashville Warbler"],"family":["Wood-Warblers"],"class":["868"],"trial_type":"image-multi-choice","trial_index":189,"time_elapsed":1227610,"internal_node_id":"0.0-1.0-188.0"},{"rt":3477,"responses":"{\"Q0\":\"Northern Waterthrush\"}","bird":["Northern Waterthrush"],"family":["Wood-Warblers"],"class":["862"],"trial_type":"image-multi-choice","trial_index":190,"time_elapsed":1232104,"internal_node_id":"0.0-1.0-189.0"},{"rt":4556,"responses":"{\"Q0\":\"Orange-crowned Warbler\"}","bird":["Tennessee Warbler"],"family":["Wood-Warblers"],"class":["866"],"trial_type":"image-multi-choice","trial_index":191,"time_elapsed":1237677,"internal_node_id":"0.0-1.0-190.0"},{"rt":3650,"responses":"{\"Q0\":\"Tennessee Warbler\"}","bird":["Nashville Warbler"],"family":["Wood-Warblers"],"class":["868"],"trial_type":"image-multi-choice","trial_index":192,"time_elapsed":1242344,"internal_node_id":"0.0-1.0-191.0"},{"rt":3100,"responses":"{\"Q0\":\"Fox Sparrow\"}","bird":["Fox Sparrow"],"family":["New World Sparrows and Allies"],"class":["901"],"trial_type":"image-multi-choice","trial_index":193,"time_elapsed":1246461,"internal_node_id":"0.0-1.0-192.0"},{"rt":4538,"responses":"{\"Q0\":\"Lark Sparrow\"}","bird":["Blackburnian Warbler"],"family":["Wood-Warblers"],"class":["874"],"trial_type":"image-multi-choice","trial_index":194,"time_elapsed":1252017,"internal_node_id":"0.0-1.0-193.0"},{"rt":4270,"responses":"{\"Q0\":\"Swamp Sparrow\"}","bird":["Swamp Sparrow"],"family":["New World Sparrows and Allies"],"class":["904"],"trial_type":"image-multi-choice","trial_index":195,"time_elapsed":1257305,"internal_node_id":"0.0-1.0-194.0"},{"rt":5580,"responses":"{\"Q0\":\"Magnolia Warbler\"}","bird":["Townsend's Warbler"],"family":["Wood-Warblers"],"class":["881"],"trial_type":"image-multi-choice","trial_index":196,"time_elapsed":1263905,"internal_node_id":"0.0-1.0-195.0"},{"rt":6162,"responses":"{\"Q0\":\"Tennessee Warbler\"}","bird":["Tennessee Warbler"],"family":["Wood-Warblers"],"class":["866"],"trial_type":"image-multi-choice","trial_index":197,"time_elapsed":1271086,"internal_node_id":"0.0-1.0-196.0"},{"rt":2970,"responses":"{\"Q0\":\"White-crowned Sparrow\"}","bird":["White-crowned Sparrow"],"family":["New World Sparrows and Allies"],"class":["766"],"trial_type":"image-multi-choice","trial_index":198,"time_elapsed":1275074,"internal_node_id":"0.0-1.0-197.0"},{"rt":3172,"responses":"{\"Q0\":\"Ovenbird\"}","bird":["Ovenbird"],"family":["Wood-Warblers"],"class":["860"],"trial_type":"image-multi-choice","trial_index":199,"time_elapsed":1279262,"internal_node_id":"0.0-1.0-198.0"},{"rt":3853,"responses":"{\"Q0\":\"Lincoln's Sparrow\"}","bird":["Vesper Sparrow"],"family":["New World Sparrows and Allies"],"class":["898"],"trial_type":"image-multi-choice","trial_index":200,"time_elapsed":1284122,"internal_node_id":"0.0-1.0-199.0"},{"rt":4148,"responses":"{\"Q0\":\"Blackburnian Warbler\"}","bird":["Blackburnian Warbler"],"family":["Wood-Warblers"],"class":["874"],"trial_type":"image-multi-choice","trial_index":201,"time_elapsed":1289289,"internal_node_id":"0.0-1.0-200.0"},{"rt":8064,"responses":"{\"Q0\":\"American Tree Sparrow\"}","bird":["Chipping Sparrow"],"family":["New World Sparrows and Allies"],"class":["769"],"trial_type":"image-multi-choice","trial_index":202,"time_elapsed":1298370,"internal_node_id":"0.0-1.0-201.0"},{"rt":7014,"responses":"{\"Q0\":\"Chipping Sparrow\"}","bird":["Vesper Sparrow"],"family":["New World Sparrows and Allies"],"class":["898"],"trial_type":"image-multi-choice","trial_index":203,"time_elapsed":1306403,"internal_node_id":"0.0-1.0-202.0"},{"rt":2745,"responses":"{\"Q0\":\"Yellow Warbler\"}","bird":["Yellow Warbler"],"family":["Wood-Warblers"],"class":["875"],"trial_type":"image-multi-choice","trial_index":204,"time_elapsed":1310166,"internal_node_id":"0.0-1.0-203.0"},{"rt":3271,"responses":"{\"Q0\":\"Tennessee Warbler\"}","bird":["Orange-crowned Warbler"],"family":["Wood-Warblers"],"class":["867"],"trial_type":"image-multi-choice","trial_index":205,"time_elapsed":1314454,"internal_node_id":"0.0-1.0-204.0"},{"rt":2889,"responses":"{\"Q0\":\"White-throated Sparrow\"}","bird":["White-throated Sparrow"],"family":["New World Sparrows and Allies"],"class":["764"],"trial_type":"image-multi-choice","trial_index":206,"time_elapsed":1318361,"internal_node_id":"0.0-1.0-205.0"},{"rt":4657,"responses":"{\"Q0\":\"American Tree Sparrow\"}","bird":["American Tree Sparrow"],"family":["New World Sparrows and Allies"],"class":["894"],"trial_type":"image-multi-choice","trial_index":207,"time_elapsed":1324036,"internal_node_id":"0.0-1.0-206.0"},{"rt":7604,"responses":"{\"Q0\":\"Nashville Warbler\"}","bird":["Orange-crowned Warbler"],"family":["Wood-Warblers"],"class":["867"],"trial_type":"image-multi-choice","trial_index":208,"time_elapsed":1332658,"internal_node_id":"0.0-1.0-207.0"},{"rt":3469,"responses":"{\"Q0\":\"Black-and-white Warbler\"}","bird":["Black-and-white Warbler"],"family":["Wood-Warblers"],"class":["864"],"trial_type":"image-multi-choice","trial_index":209,"time_elapsed":1337143,"internal_node_id":"0.0-1.0-208.0"},{"rt":3552,"responses":"{\"Q0\":\"Lark Sparrow\"}","bird":["Lark Sparrow"],"family":["New World Sparrows and Allies"],"class":["899"],"trial_type":"image-multi-choice","trial_index":210,"time_elapsed":1341708,"internal_node_id":"0.0-1.0-209.0"},{"rt":3761,"responses":"{\"Q0\":\"American Tree Sparrow\"}","bird":["Chipping Sparrow"],"family":["New World Sparrows and Allies"],"class":["769"],"trial_type":"image-multi-choice","trial_index":211,"time_elapsed":1346487,"internal_node_id":"0.0-1.0-210.0"},{"rt":5104,"responses":"{\"Q0\":\"Orange-crowned Warbler\"}","bird":["Orange-crowned Warbler"],"family":["Wood-Warblers"],"class":["867"],"trial_type":"image-multi-choice","trial_index":212,"time_elapsed":1352609,"internal_node_id":"0.0-1.0-211.0"},{"rt":2438,"responses":"{\"Q0\":\"Yellow Warbler\"}","bird":["Yellow Warbler"],"family":["Wood-Warblers"],"class":["875"],"trial_type":"image-multi-choice","trial_index":213,"time_elapsed":1356066,"internal_node_id":"0.0-1.0-212.0"},{"rt":3279,"responses":"{\"Q0\":\"American Tree Sparrow\"}","bird":["American Tree Sparrow"],"family":["New World Sparrows and Allies"],"class":["894"],"trial_type":"image-multi-choice","trial_index":214,"time_elapsed":1360369,"internal_node_id":"0.0-1.0-213.0"},{"rt":4250,"responses":"{\"Q0\":\"Vesper Sparrow\"}","bird":["Vesper Sparrow"],"family":["New World Sparrows and Allies"],"class":["898"],"trial_type":"image-multi-choice","trial_index":215,"time_elapsed":1365636,"internal_node_id":"0.0-1.0-214.0"},{"rt":3701,"responses":"{\"Q0\":\"Ovenbird\"}","bird":["Ovenbird"],"family":["Wood-Warblers"],"class":["860"],"trial_type":"image-multi-choice","trial_index":216,"time_elapsed":1370355,"internal_node_id":"0.0-1.0-215.0"},{"rt":3232,"responses":"{\"Q0\":\"Lark Sparrow\"}","bird":["Lark Sparrow"],"family":["New World Sparrows and Allies"],"class":["899"],"trial_type":"image-multi-choice","trial_index":217,"time_elapsed":1374606,"internal_node_id":"0.0-1.0-216.0"},{"rt":3946,"responses":"{\"Q0\":\"Lincoln's Sparrow\"}","bird":["Lincoln's Sparrow"],"family":["New World Sparrows and Allies"],"class":["903"],"trial_type":"image-multi-choice","trial_index":218,"time_elapsed":1379569,"internal_node_id":"0.0-1.0-217.0"},{"rt":4136,"responses":"{\"Q0\":\"Swamp Sparrow\"}","bird":["Chipping Sparrow"],"family":["New World Sparrows and Allies"],"class":["769"],"trial_type":"image-multi-choice","trial_index":219,"time_elapsed":1384723,"internal_node_id":"0.0-1.0-218.0"},{"rt":3912,"responses":"{\"Q0\":\"Lincoln's Sparrow\"}","bird":["Lincoln's Sparrow"],"family":["New World Sparrows and Allies"],"class":["903"],"trial_type":"image-multi-choice","trial_index":220,"time_elapsed":1389651,"internal_node_id":"0.0-1.0-219.0"},{"rt":6500,"responses":"{\"Q0\":\"Northern Waterthrush\"}","bird":["Northern Waterthrush"],"family":["Wood-Warblers"],"class":["862"],"trial_type":"image-multi-choice","trial_index":221,"time_elapsed":1397168,"internal_node_id":"0.0-1.0-220.0"},{"rt":4770,"responses":"{\"Q0\":\"Chipping Sparrow\"}","bird":["Chipping Sparrow"],"family":["New World Sparrows and Allies"],"class":["769"],"trial_type":"image-multi-choice","trial_index":222,"time_elapsed":1402956,"internal_node_id":"0.0-1.0-221.0"},{"rt":6559,"responses":"{\"Q0\":\"Lincoln's Sparrow\"}","bird":["Lincoln's Sparrow"],"family":["New World Sparrows and Allies"],"class":["903"],"trial_type":"image-multi-choice","trial_index":223,"time_elapsed":1410532,"internal_node_id":"0.0-1.0-222.0"},{"rt":4563,"responses":"{\"Q0\":\"Townsend's Warbler\"}","bird":["Blackburnian Warbler"],"family":["Wood-Warblers"],"class":["874"],"trial_type":"image-multi-choice","trial_index":224,"time_elapsed":1416114,"internal_node_id":"0.0-1.0-223.0"},{"rt":5038,"responses":"{\"Q0\":\"Lincoln's Sparrow\"}","bird":["Swamp Sparrow"],"family":["New World Sparrows and Allies"],"class":["904"],"trial_type":"image-multi-choice","trial_index":225,"time_elapsed":1422167,"internal_node_id":"0.0-1.0-224.0"},{"rt":3373,"responses":"{\"Q0\":\"American Tree Sparrow\"}","bird":["American Tree Sparrow"],"family":["New World Sparrows and Allies"],"class":["894"],"trial_type":"image-multi-choice","trial_index":226,"time_elapsed":1426559,"internal_node_id":"0.0-1.0-225.0"},{"rt":3323,"responses":"{\"Q0\":\"Fox Sparrow\"}","bird":["Fox Sparrow"],"family":["New World Sparrows and Allies"],"class":["901"],"trial_type":"image-multi-choice","trial_index":227,"time_elapsed":1430899,"internal_node_id":"0.0-1.0-226.0"},{"rt":3687,"responses":"{\"Q0\":\"Northern Waterthrush\"}","bird":["Northern Waterthrush"],"family":["Wood-Warblers"],"class":["862"],"trial_type":"image-multi-choice","trial_index":228,"time_elapsed":1435608,"internal_node_id":"0.0-1.0-227.0"},{"rt":5437,"responses":"{\"Q0\":\"Nashville Warbler\"}","bird":["Nashville Warbler"],"family":["Wood-Warblers"],"class":["868"],"trial_type":"image-multi-choice","trial_index":229,"time_elapsed":1442064,"internal_node_id":"0.0-1.0-228.0"},{"rt":3888,"responses":"{\"Q0\":\"Black-and-white Warbler\"}","bird":["Black-and-white Warbler"],"family":["Wood-Warblers"],"class":["864"],"trial_type":"image-multi-choice","trial_index":230,"time_elapsed":1446967,"internal_node_id":"0.0-1.0-229.0"},{"rt":3591,"responses":"{\"Q0\":\"Tennessee Warbler\"}","bird":["Tennessee Warbler"],"family":["Wood-Warblers"],"class":["866"],"trial_type":"image-multi-choice","trial_index":231,"time_elapsed":1451575,"internal_node_id":"0.0-1.0-230.0"},{"rt":3618,"responses":"{\"Q0\":\"Blackburnian Warbler\"}","bird":["Townsend's Warbler"],"family":["Wood-Warblers"],"class":["881"],"trial_type":"image-multi-choice","trial_index":232,"time_elapsed":1456211,"internal_node_id":"0.0-1.0-231.0"},{"rt":4310,"responses":"{\"Q0\":\"Townsend's Warbler\"}","bird":["Magnolia Warbler"],"family":["Wood-Warblers"],"class":["758"],"trial_type":"image-multi-choice","trial_index":233,"time_elapsed":1461539,"internal_node_id":"0.0-1.0-232.0"},{"rt":3536,"responses":"{\"Q0\":\"Northern Waterthrush\"}","bird":["Northern Waterthrush"],"family":["Wood-Warblers"],"class":["862"],"trial_type":"image-multi-choice","trial_index":234,"time_elapsed":1466095,"internal_node_id":"0.0-1.0-233.0"},{"rt":5237,"responses":"{\"Q0\":\"Orange-crowned Warbler\"}","bird":["Orange-crowned Warbler"],"family":["Wood-Warblers"],"class":["867"],"trial_type":"image-multi-choice","trial_index":235,"time_elapsed":1472351,"internal_node_id":"0.0-1.0-234.0"},{"rt":3059,"responses":"{\"Q0\":\"White-throated Sparrow\"}","bird":["White-throated Sparrow"],"family":["New World Sparrows and Allies"],"class":["764"],"trial_type":"image-multi-choice","trial_index":236,"time_elapsed":1476427,"internal_node_id":"0.0-1.0-235.0"},{"rt":2644,"responses":"{\"Q0\":\"Yellow Warbler\"}","bird":["Yellow Warbler"],"family":["Wood-Warblers"],"class":["875"],"trial_type":"image-multi-choice","trial_index":237,"time_elapsed":1480087,"internal_node_id":"0.0-1.0-236.0"},{"rt":2969,"responses":"{\"Q0\":\"Fox Sparrow\"}","bird":["Fox Sparrow"],"family":["New World Sparrows and Allies"],"class":["901"],"trial_type":"image-multi-choice","trial_index":238,"time_elapsed":1484074,"internal_node_id":"0.0-1.0-237.0"},{"rt":6119,"responses":"{\"Q0\":\"Chipping Sparrow\"}","bird":["Swamp Sparrow"],"family":["New World Sparrows and Allies"],"class":["904"],"trial_type":"image-multi-choice","trial_index":239,"time_elapsed":1491211,"internal_node_id":"0.0-1.0-238.0"},{"rt":3275,"responses":"{\"Q0\":\"Fox Sparrow\"}","bird":["Fox Sparrow"],"family":["New World Sparrows and Allies"],"class":["901"],"trial_type":"image-multi-choice","trial_index":240,"time_elapsed":1519347,"internal_node_id":"0.0-1.0-239.0"},{"rt":6135,"responses":"{\"Q0\":\"Nashville Warbler\"}","bird":["Orange-crowned Warbler"],"family":["Wood-Warblers"],"class":["867"],"trial_type":"image-multi-choice","trial_index":241,"time_elapsed":1526500,"internal_node_id":"0.0-1.0-240.0"},{"rt":3090,"responses":"{\"Q0\":\"White-crowned Sparrow\"}","bird":["White-crowned Sparrow"],"family":["New World Sparrows and Allies"],"class":["766"],"trial_type":"image-multi-choice","trial_index":242,"time_elapsed":1530607,"internal_node_id":"0.0-1.0-241.0"},{"rt":3829,"responses":"{\"Q0\":\"Lark Sparrow\"}","bird":["White-throated Sparrow"],"family":["New World Sparrows and Allies"],"class":["764"],"trial_type":"image-multi-choice","trial_index":243,"time_elapsed":1535457,"internal_node_id":"0.0-1.0-242.0"},{"rt":10757,"responses":"{\"Q0\":\"Swamp Sparrow\"}","bird":["Song Sparrow"],"family":["New World Sparrows and Allies"],"class":["902"],"trial_type":"image-multi-choice","trial_index":244,"time_elapsed":1547233,"internal_node_id":"0.0-1.0-243.0"},{"rt":3130,"responses":"{\"Q0\":\"Lark Sparrow\"}","bird":["Lark Sparrow"],"family":["New World Sparrows and Allies"],"class":["899"],"trial_type":"image-multi-choice","trial_index":245,"time_elapsed":1551381,"internal_node_id":"0.0-1.0-244.0"},{"rt":4490,"responses":"{\"Q0\":\"Lincoln's Sparrow\"}","bird":["Vesper Sparrow"],"family":["New World Sparrows and Allies"],"class":["898"],"trial_type":"image-multi-choice","trial_index":246,"time_elapsed":1556891,"internal_node_id":"0.0-1.0-245.0"},{"rt":2917,"responses":"{\"Q0\":\"Lark Sparrow\"}","bird":["Lark Sparrow"],"family":["New World Sparrows and Allies"],"class":["899"],"trial_type":"image-multi-choice","trial_index":247,"time_elapsed":1560825,"internal_node_id":"0.0-1.0-246.0"},{"rt":4176,"responses":"{\"Q0\":\"American Tree Sparrow\"}","bird":["American Tree Sparrow"],"family":["New World Sparrows and Allies"],"class":["894"],"trial_type":"image-multi-choice","trial_index":248,"time_elapsed":1566022,"internal_node_id":"0.0-1.0-247.0"},{"rt":3821,"responses":"{\"Q0\":\"Black-and-white Warbler\"}","bird":["Black-and-white Warbler"],"family":["Wood-Warblers"],"class":["864"],"trial_type":"image-multi-choice","trial_index":249,"time_elapsed":1570860,"internal_node_id":"0.0-1.0-248.0"},{"rt":3722,"responses":"{\"Q0\":\"Lark Sparrow\"}","bird":["Lark Sparrow"],"family":["New World Sparrows and Allies"],"class":["899"],"trial_type":"image-multi-choice","trial_index":250,"time_elapsed":1575600,"internal_node_id":"0.0-1.0-249.0"},{"rt":4745,"responses":"{\"Q0\":\"Orange-crowned Warbler\"}","bird":["Orange-crowned Warbler"],"family":["Wood-Warblers"],"class":["867"],"trial_type":"image-multi-choice","trial_index":251,"time_elapsed":1581362,"internal_node_id":"0.0-1.0-250.0"},{"rt":6560,"responses":"{\"Q0\":\"Townsend's Warbler\"}","bird":["Blackburnian Warbler"],"family":["Wood-Warblers"],"class":["874"],"trial_type":"image-multi-choice","trial_index":252,"time_elapsed":1588940,"internal_node_id":"0.0-1.0-251.0"},{"rt":11277,"responses":"{\"Q0\":\"Swamp Sparrow\"}","bird":["Vesper Sparrow"],"family":["New World Sparrows and Allies"],"class":["898"],"trial_type":"image-multi-choice","trial_index":253,"time_elapsed":1601234,"internal_node_id":"0.0-1.0-252.0"},{"rt":3721,"responses":"{\"Q0\":\"Blackburnian Warbler\"}","bird":["Townsend's Warbler"],"family":["Wood-Warblers"],"class":["881"],"trial_type":"image-multi-choice","trial_index":254,"time_elapsed":1605972,"internal_node_id":"0.0-1.0-253.0"},{"rt":3356,"responses":"{\"Q0\":\"Swamp Sparrow\"}","bird":["Swamp Sparrow"],"family":["New World Sparrows and Allies"],"class":["904"],"trial_type":"image-multi-choice","trial_index":255,"time_elapsed":1610346,"internal_node_id":"0.0-1.0-254.0"},{"rt":4627,"responses":"{\"Q0\":\"Song Sparrow\"}","bird":["Song Sparrow"],"family":["New World Sparrows and Allies"],"class":["902"],"trial_type":"image-multi-choice","trial_index":256,"time_elapsed":1615989,"internal_node_id":"0.0-1.0-255.0"},{"rt":4227,"responses":"{\"Q0\":\"Swamp Sparrow\"}","bird":["Swamp Sparrow"],"family":["New World Sparrows and Allies"],"class":["904"],"trial_type":"image-multi-choice","trial_index":257,"time_elapsed":1621234,"internal_node_id":"0.0-1.0-256.0"},{"rt":3051,"responses":"{\"Q0\":\"Ovenbird\"}","bird":["Ovenbird"],"family":["Wood-Warblers"],"class":["860"],"trial_type":"image-multi-choice","trial_index":258,"time_elapsed":1625294,"internal_node_id":"0.0-1.0-257.0"},{"rt":3423,"responses":"{\"Q0\":\"Black-and-white Warbler\"}","bird":["Black-and-white Warbler"],"family":["Wood-Warblers"],"class":["864"],"trial_type":"image-multi-choice","trial_index":259,"time_elapsed":1629737,"internal_node_id":"0.0-1.0-258.0"},{"rt":4709,"responses":"{\"Q0\":\"Chipping Sparrow\"}","bird":["American Tree Sparrow"],"family":["New World Sparrows and Allies"],"class":["894"],"trial_type":"image-multi-choice","trial_index":260,"time_elapsed":1635464,"internal_node_id":"0.0-1.0-259.0"},{"rt":2825,"responses":"{\"Q0\":\"Yellow Warbler\"}","bird":["Yellow Warbler"],"family":["Wood-Warblers"],"class":["875"],"trial_type":"image-multi-choice","trial_index":261,"time_elapsed":1639307,"internal_node_id":"0.0-1.0-260.0"},{"rt":6131,"responses":"{\"Q0\":\"Chipping Sparrow\"}","bird":["Vesper Sparrow"],"family":["New World Sparrows and Allies"],"class":["898"],"trial_type":"image-multi-choice","trial_index":262,"time_elapsed":1646447,"internal_node_id":"0.0-1.0-261.0"},{"rt":4749,"responses":"{\"Q0\":\"American Tree Sparrow\"}","bird":["Chipping Sparrow"],"family":["New World Sparrows and Allies"],"class":["769"],"trial_type":"image-multi-choice","trial_index":263,"time_elapsed":1652213,"internal_node_id":"0.0-1.0-262.0"},{"rt":4564,"responses":"{\"Q0\":\"Northern Waterthrush\"}","bird":["Northern Waterthrush"],"family":["Wood-Warblers"],"class":["862"],"trial_type":"image-multi-choice","trial_index":264,"time_elapsed":1657795,"internal_node_id":"0.0-1.0-263.0"},{"rt":5847,"responses":"{\"Q0\":\"Swamp Sparrow\"}","bird":["Song Sparrow"],"family":["New World Sparrows and Allies"],"class":["902"],"trial_type":"image-multi-choice","trial_index":265,"time_elapsed":1664661,"internal_node_id":"0.0-1.0-264.0"},{"rt":4678,"responses":"{\"Q0\":\"Nashville Warbler\"}","bird":["Nashville Warbler"],"family":["Wood-Warblers"],"class":["868"],"trial_type":"image-multi-choice","trial_index":266,"time_elapsed":1670356,"internal_node_id":"0.0-1.0-265.0"},{"rt":5655,"responses":"{\"Q0\":\"White-throated Sparrow\"}","bird":["White-throated Sparrow"],"family":["New World Sparrows and Allies"],"class":["764"],"trial_type":"image-multi-choice","trial_index":267,"time_elapsed":1677030,"internal_node_id":"0.0-1.0-266.0"},{"rt":2875,"responses":"{\"Q0\":\"White-crowned Sparrow\"}","bird":["White-crowned Sparrow"],"family":["New World Sparrows and Allies"],"class":["766"],"trial_type":"image-multi-choice","trial_index":268,"time_elapsed":1680924,"internal_node_id":"0.0-1.0-267.0"},{"rt":3437,"responses":"{\"Q0\":\"American Tree Sparrow\"}","bird":["American Tree Sparrow"],"family":["New World Sparrows and Allies"],"class":["894"],"trial_type":"image-multi-choice","trial_index":269,"time_elapsed":1685379,"internal_node_id":"0.0-1.0-268.0"},{"rt":2947,"responses":"{\"Q0\":\"White-throated Sparrow\"}","bird":["White-throated Sparrow"],"family":["New World Sparrows and Allies"],"class":["764"],"trial_type":"image-multi-choice","trial_index":270,"time_elapsed":1689344,"internal_node_id":"0.0-1.0-269.0"},{"rt":2857,"responses":"{\"Q0\":\"White-crowned Sparrow\"}","bird":["White-crowned Sparrow"],"family":["New World Sparrows and Allies"],"class":["766"],"trial_type":"image-multi-choice","trial_index":271,"time_elapsed":1693219,"internal_node_id":"0.0-1.0-270.0"},{"rt":2174,"responses":"{\"Q0\":\"Yellow Warbler\"}","bird":["Yellow Warbler"],"family":["Wood-Warblers"],"class":["875"],"trial_type":"image-multi-choice","trial_index":272,"time_elapsed":1696413,"internal_node_id":"0.0-1.0-271.0"},{"rt":4636,"responses":"{\"Q0\":\"Chipping Sparrow\"}","bird":["Chipping Sparrow"],"family":["New World Sparrows and Allies"],"class":["769"],"trial_type":"image-multi-choice","trial_index":273,"time_elapsed":1702068,"internal_node_id":"0.0-1.0-272.0"},{"rt":4428,"responses":"{\"Q0\":\"Ovenbird\"}","bird":["Ovenbird"],"family":["Wood-Warblers"],"class":["860"],"trial_type":"image-multi-choice","trial_index":274,"time_elapsed":1707514,"internal_node_id":"0.0-1.0-273.0"},{"rt":3614,"responses":"{\"Q0\":\"Northern Waterthrush\"}","bird":["Northern Waterthrush"],"family":["Wood-Warblers"],"class":["862"],"trial_type":"image-multi-choice","trial_index":275,"time_elapsed":1712145,"internal_node_id":"0.0-1.0-274.0"},{"rt":3071,"responses":"{\"Q0\":\"Ovenbird\"}","bird":["Ovenbird"],"family":["Wood-Warblers"],"class":["860"],"trial_type":"image-multi-choice","trial_index":276,"time_elapsed":1716234,"internal_node_id":"0.0-1.0-275.0"},{"rt":3639,"responses":"{\"Q0\":\"Blackburnian Warbler\"}","bird":["Black-and-white Warbler"],"family":["Wood-Warblers"],"class":["864"],"trial_type":"image-multi-choice","trial_index":277,"time_elapsed":1720891,"internal_node_id":"0.0-1.0-276.0"},{"rt":4210,"responses":"{\"Q0\":\"Lark Sparrow\"}","bird":["Chipping Sparrow"],"family":["New World Sparrows and Allies"],"class":["769"],"trial_type":"image-multi-choice","trial_index":278,"time_elapsed":1726118,"internal_node_id":"0.0-1.0-277.0"},{"rt":3326,"responses":"{\"Q0\":\"Fox Sparrow\"}","bird":["Fox Sparrow"],"family":["New World Sparrows and Allies"],"class":["901"],"trial_type":"image-multi-choice","trial_index":279,"time_elapsed":1730461,"internal_node_id":"0.0-1.0-278.0"},{"rt":4079,"responses":"{\"Q0\":\"Magnolia Warbler\"}","bird":["Magnolia Warbler"],"family":["Wood-Warblers"],"class":["758"],"trial_type":"image-multi-choice","trial_index":280,"time_elapsed":1735558,"internal_node_id":"0.0-1.0-279.0"},{"rt":2888,"responses":"{\"Q0\":\"White-crowned Sparrow\"}","bird":["White-crowned Sparrow"],"family":["New World Sparrows and Allies"],"class":["766"],"trial_type":"image-multi-choice","trial_index":281,"time_elapsed":1739462,"internal_node_id":"0.0-1.0-280.0"},{"rt":4535,"responses":"{\"Q0\":\"Swamp Sparrow\"}","bird":["White-throated Sparrow"],"family":["New World Sparrows and Allies"],"class":["764"],"trial_type":"image-multi-choice","trial_index":282,"time_elapsed":1745014,"internal_node_id":"0.0-1.0-281.0"},{"rt":5042,"responses":"{\"Q0\":\"Swamp Sparrow\"}","bird":["Swamp Sparrow"],"family":["New World Sparrows and Allies"],"class":["904"],"trial_type":"image-multi-choice","trial_index":283,"time_elapsed":1751074,"internal_node_id":"0.0-1.0-282.0"},{"rt":5073,"responses":"{\"Q0\":\"Magnolia Warbler\"}","bird":["Magnolia Warbler"],"family":["Wood-Warblers"],"class":["758"],"trial_type":"image-multi-choice","trial_index":284,"time_elapsed":1757164,"internal_node_id":"0.0-1.0-283.0"},{"rt":3808,"responses":"{\"Q0\":\"Orange-crowned Warbler\"}","bird":["Orange-crowned Warbler"],"family":["Wood-Warblers"],"class":["867"],"trial_type":"image-multi-choice","trial_index":285,"time_elapsed":1761984,"internal_node_id":"0.0-1.0-284.0"},{"rt":3984,"responses":"{\"Q0\":\"Townsend's Warbler\"}","bird":["Magnolia Warbler"],"family":["Wood-Warblers"],"class":["758"],"trial_type":"image-multi-choice","trial_index":286,"time_elapsed":1766978,"internal_node_id":"0.0-1.0-285.0"},{"rt":4726,"responses":"{\"Q0\":\"Song Sparrow\"}","bird":["Vesper Sparrow"],"family":["New World Sparrows and Allies"],"class":["898"],"trial_type":"image-multi-choice","trial_index":287,"time_elapsed":1772724,"internal_node_id":"0.0-1.0-286.0"},{"rt":3193,"responses":"{\"Q0\":\"Northern Waterthrush\"}","bird":["Northern Waterthrush"],"family":["Wood-Warblers"],"class":["862"],"trial_type":"image-multi-choice","trial_index":288,"time_elapsed":1776934,"internal_node_id":"0.0-1.0-287.0"},{"rt":5988,"responses":"{\"Q0\":\"Blackburnian Warbler\"}","bird":["Blackburnian Warbler"],"family":["Wood-Warblers"],"class":["874"],"trial_type":"image-multi-choice","trial_index":289,"time_elapsed":1783939,"internal_node_id":"0.0-1.0-288.0"},{"rt":5087,"responses":"{\"Q0\":\"Tennessee Warbler\"}","bird":["Tennessee Warbler"],"family":["Wood-Warblers"],"class":["866"],"trial_type":"image-multi-choice","trial_index":290,"time_elapsed":1790043,"internal_node_id":"0.0-1.0-289.0"},{"rt":3241,"responses":"{\"Q0\":\"Lark Sparrow\"}","bird":["Lark Sparrow"],"family":["New World Sparrows and Allies"],"class":["899"],"trial_type":"image-multi-choice","trial_index":291,"time_elapsed":1794303,"internal_node_id":"0.0-1.0-290.0"},{"rt":6020,"responses":"{\"Q0\":\"Black-and-white Warbler\"}","bird":["Black-and-white Warbler"],"family":["Wood-Warblers"],"class":["864"],"trial_type":"image-multi-choice","trial_index":292,"time_elapsed":1801341,"internal_node_id":"0.0-1.0-291.0"},{"rt":3275,"responses":"{\"Q0\":\"Swamp Sparrow\"}","bird":["Lincoln's Sparrow"],"family":["New World Sparrows and Allies"],"class":["903"],"trial_type":"image-multi-choice","trial_index":293,"time_elapsed":1805633,"internal_node_id":"0.0-1.0-292.0"},{"rt":15802,"responses":"{\"Q0\":\"Townsend's Warbler\"}","bird":["Tennessee Warbler"],"family":["Wood-Warblers"],"class":["866"],"trial_type":"image-multi-choice","trial_index":294,"time_elapsed":1822454,"internal_node_id":"0.0-1.0-293.0"},{"rt":2855,"responses":"{\"Q0\":\"Ovenbird\"}","bird":["Ovenbird"],"family":["Wood-Warblers"],"class":["860"],"trial_type":"image-multi-choice","trial_index":295,"time_elapsed":1826326,"internal_node_id":"0.0-1.0-294.0"},{"rt":5013,"responses":"{\"Q0\":\"Lark Sparrow\"}","bird":["Vesper Sparrow"],"family":["New World Sparrows and Allies"],"class":["898"],"trial_type":"image-multi-choice","trial_index":296,"time_elapsed":1832357,"internal_node_id":"0.0-1.0-295.0"},{"rt":3720,"responses":"{\"Q0\":\"Northern Waterthrush\"}","bird":["Northern Waterthrush"],"family":["Wood-Warblers"],"class":["862"],"trial_type":"image-multi-choice","trial_index":297,"time_elapsed":1837096,"internal_node_id":"0.0-1.0-296.0"},{"rt":8095,"responses":"{\"Q0\":\"Lark Sparrow\"}","bird":["Chipping Sparrow"],"family":["New World Sparrows and Allies"],"class":["769"],"trial_type":"image-multi-choice","trial_index":298,"time_elapsed":1846208,"internal_node_id":"0.0-1.0-297.0"},{"rt":3946,"responses":"{\"Q0\":\"Lark Sparrow\"}","bird":["Lark Sparrow"],"family":["New World Sparrows and Allies"],"class":["899"],"trial_type":"image-multi-choice","trial_index":299,"time_elapsed":1851171,"internal_node_id":"0.0-1.0-298.0"},{"rt":3042,"responses":"{\"Q0\":\"Yellow Warbler\"}","bird":["Yellow Warbler"],"family":["Wood-Warblers"],"class":["875"],"trial_type":"image-multi-choice","trial_index":300,"time_elapsed":1867958,"internal_node_id":"0.0-1.0-299.0"},{"view_history":"[{\"page_index\":0,\"viewing_time\":2366}]","rt":2367,"trial_type":"instructions","trial_index":301,"time_elapsed":1871327,"internal_node_id":"0.0-2.0"}]