[{"view_history":"[{\"page_index\":0,\"viewing_time\":1423}]","rt":1424,"trial_type":"instructions","trial_index":0,"time_elapsed":1426,"internal_node_id":"0.0-0.0"},{"rt":34602,"responses":"{\"Q0\":\"Northern Waterthrush\"}","bird":["Townsend's Warbler"],"family":["Wood-Warblers"],"class":["881"],"trial_type":"image-multi-choice","trial_index":1,"time_elapsed":37056,"internal_node_id":"0.0-1.0-0.0"},{"rt":4559,"responses":"{\"Q0\":\"Lark Sparrow\"}","bird":["Lark Sparrow"],"family":["New World Sparrows and Allies"],"class":["899"],"trial_type":"image-multi-choice","trial_index":2,"time_elapsed":42635,"internal_node_id":"0.0-1.0-1.0"},{"rt":4250,"responses":"{\"Q0\":\"White-crowned Sparrow\"}","bird":["White-crowned Sparrow"],"family":["New World Sparrows and Allies"],"class":["766"],"trial_type":"image-multi-choice","trial_index":3,"time_elapsed":47908,"internal_node_id":"0.0-1.0-2.0"},{"rt":15572,"responses":"{\"Q0\":\"Fox Sparrow\"}","bird":["Lark Sparrow"],"family":["New World Sparrows and Allies"],"class":["899"],"trial_type":"image-multi-choice","trial_index":4,"time_elapsed":64508,"internal_node_id":"0.0-1.0-3.0"},{"rt":4196,"responses":"{\"Q0\":\"White-throated Sparrow\"}","bird":["White-throated Sparrow"],"family":["New World Sparrows and Allies"],"class":["764"],"trial_type":"image-multi-choice","trial_index":5,"time_elapsed":69722,"internal_node_id":"0.0-1.0-4.0"},{"rt":5056,"responses":"{\"Q0\":\"White-crowned Sparrow\"}","bird":["White-crowned Sparrow"],"family":["New World Sparrows and Allies"],"class":["766"],"trial_type":"image-multi-choice","trial_index":6,"time_elapsed":75797,"internal_node_id":"0.0-1.0-5.0"},{"rt":12982,"responses":"{\"Q0\":\"Orange-crowned Warbler\"}","bird":["Tennessee Warbler"],"family":["Wood-Warblers"],"class":["866"],"trial_type":"image-multi-choice","trial_index":7,"time_elapsed":89798,"internal_node_id":"0.0-1.0-6.0"},{"rt":4893,"responses":"{\"Q0\":\"White-crowned Sparrow\"}","bird":["White-crowned Sparrow"],"family":["New World Sparrows and Allies"],"class":["766"],"trial_type":"image-multi-choice","trial_index":8,"time_elapsed":95712,"internal_node_id":"0.0-1.0-7.0"},{"rt":6098,"responses":"{\"Q0\":\"Orange-crowned Warbler\"}","bird":["Orange-crowned Warbler"],"family":["Wood-Warblers"],"class":["867"],"trial_type":"image-multi-choice","trial_index":9,"time_elapsed":102829,"internal_node_id":"0.0-1.0-8.0"},{"rt":4289,"responses":"{\"Q0\":\"Lincoln's Sparrow\"}","bird":["Swamp Sparrow"],"family":["New World Sparrows and Allies"],"class":["904"],"trial_type":"image-multi-choice","trial_index":10,"time_elapsed":108141,"internal_node_id":"0.0-1.0-9.0"},{"rt":5781,"responses":"{\"Q0\":\"Tennessee Warbler\"}","bird":["Orange-crowned Warbler"],"family":["Wood-Warblers"],"class":["867"],"trial_type":"image-multi-choice","trial_index":11,"time_elapsed":114942,"internal_node_id":"0.0-1.0-10.0"},{"rt":8470,"responses":"{\"Q0\":\"American Tree Sparrow\"}","bird":["White-crowned Sparrow"],"family":["New World Sparrows and Allies"],"class":["766"],"trial_type":"image-multi-choice","trial_index":12,"time_elapsed":124431,"internal_node_id":"0.0-1.0-11.0"},{"rt":3703,"responses":"{\"Q0\":\"Lark Sparrow\"}","bird":["Townsend's Warbler"],"family":["Wood-Warblers"],"class":["881"],"trial_type":"image-multi-choice","trial_index":13,"time_elapsed":129152,"internal_node_id":"0.0-1.0-12.0"},{"rt":5688,"responses":"{\"Q0\":\"Lincoln's Sparrow\"}","bird":["Lincoln's Sparrow"],"family":["New World Sparrows and Allies"],"class":["903"],"trial_type":"image-multi-choice","trial_index":14,"time_elapsed":135860,"internal_node_id":"0.0-1.0-13.0"},{"rt":3122,"responses":"{\"Q0\":\"Ovenbird\"}","bird":["Ovenbird"],"family":["Wood-Warblers"],"class":["860"],"trial_type":"image-multi-choice","trial_index":15,"time_elapsed":139999,"internal_node_id":"0.0-1.0-14.0"},{"rt":3733,"responses":"{\"Q0\":\"Tennessee Warbler\"}","bird":["Tennessee Warbler"],"family":["Wood-Warblers"],"class":["866"],"trial_type":"image-multi-choice","trial_index":16,"time_elapsed":144749,"internal_node_id":"0.0-1.0-15.0"},{"rt":4117,"responses":"{\"Q0\":\"Swamp Sparrow\"}","bird":["Vesper Sparrow"],"family":["New World Sparrows and Allies"],"class":["898"],"trial_type":"image-multi-choice","trial_index":17,"time_elapsed":149884,"internal_node_id":"0.0-1.0-16.0"},{"rt":8719,"responses":"{\"Q0\":\"Nashville Warbler\"}","bird":["Tennessee Warbler"],"family":["Wood-Warblers"],"class":["866"],"trial_type":"image-multi-choice","trial_index":18,"time_elapsed":159621,"internal_node_id":"0.0-1.0-17.0"},{"rt":4697,"responses":"{\"Q0\":\"Vesper Sparrow\"}","bird":["Vesper Sparrow"],"family":["New World Sparrows and Allies"],"class":["898"],"trial_type":"image-multi-choice","trial_index":19,"time_elapsed":165342,"internal_node_id":"0.0-1.0-18.0"},{"rt":4657,"responses":"{\"Q0\":\"Song Sparrow\"}","bird":["Song Sparrow"],"family":["New World Sparrows and Allies"],"class":["902"],"trial_type":"image-multi-choice","trial_index":20,"time_elapsed":171016,"internal_node_id":"0.0-1.0-19.0"},{"rt":5283,"responses":"{\"Q0\":\"Magnolia Warbler\"}","bird":["Magnolia Warbler"],"family":["Wood-Warblers"],"class":["758"],"trial_type":"image-multi-choice","trial_index":21,"time_elapsed":177322,"internal_node_id":"0.0-1.0-20.0"},{"rt":4317,"responses":"{\"Q0\":\"Orange-crowned Warbler\"}","bird":["Orange-crowned Warbler"],"family":["Wood-Warblers"],"class":["867"],"trial_type":"image-multi-choice","trial_index":22,"time_elapsed":182658,"internal_node_id":"0.0-1.0-21.0"},{"rt":4332,"responses":"{\"Q0\":\"Lark Sparrow\"}","bird":["Townsend's Warbler"],"family":["Wood-Warblers"],"class":["881"],"trial_type":"image-multi-choice","trial_index":23,"time_elapsed":188009,"internal_node_id":"0.0-1.0-22.0"},{"rt":5606,"responses":"{\"Q0\":\"Ovenbird\"}","bird":["Ovenbird"],"family":["Wood-Warblers"],"class":["860"],"trial_type":"image-multi-choice","trial_index":24,"time_elapsed":194632,"internal_node_id":"0.0-1.0-23.0"},{"rt":13779,"responses":"{\"Q0\":\"Lincoln's Sparrow\"}","bird":["Lincoln's Sparrow"],"family":["New World Sparrows and Allies"],"class":["903"],"trial_type":"image-multi-choice","trial_index":25,"time_elapsed":209428,"internal_node_id":"0.0-1.0-24.0"},{"rt":3095,"responses":"{\"Q0\":\"White-throated Sparrow\"}","bird":["White-throated Sparrow"],"family":["New World Sparrows and Allies"],"class":["764"],"trial_type":"image-multi-choice","trial_index":26,"time_elapsed":213544,"internal_node_id":"0.0-1.0-25.0"},{"rt":3207,"responses":"{\"Q0\":\"Ovenbird\"}","bird":["Ovenbird"],"family":["Wood-Warblers"],"class":["860"],"trial_type":"image-multi-choice","trial_index":27,"time_elapsed":217768,"internal_node_id":"0.0-1.0-26.0"},{"rt":3654,"responses":"{\"Q0\":\"Chipping Sparrow\"}","bird":["Chipping Sparrow"],"family":["New World Sparrows and Allies"],"class":["769"],"trial_type":"image-multi-choice","trial_index":28,"time_elapsed":222441,"internal_node_id":"0.0-1.0-27.0"},{"rt":5618,"responses":"{\"Q0\":\"Fox Sparrow\"}","bird":["Fox Sparrow"],"family":["New World Sparrows and Allies"],"class":["901"],"trial_type":"image-multi-choice","trial_index":29,"time_elapsed":229078,"internal_node_id":"0.0-1.0-28.0"},{"rt":4187,"responses":"{\"Q0\":\"Magnolia Warbler\"}","bird":["Magnolia Warbler"],"family":["Wood-Warblers"],"class":["758"],"trial_type":"image-multi-choice","trial_index":30,"time_elapsed":234283,"internal_node_id":"0.0-1.0-29.0"},{"rt":4984,"responses":"{\"Q0\":\"Northern Waterthrush\"}","bird":["Northern Waterthrush"],"family":["Wood-Warblers"],"class":["862"],"trial_type":"image-multi-choice","trial_index":31,"time_elapsed":240281,"internal_node_id":"0.0-1.0-30.0"},{"rt":4728,"responses":"{\"Q0\":\"Tennessee Warbler\"}","bird":["Tennessee Warbler"],"family":["Wood-Warblers"],"class":["866"],"trial_type":"image-multi-choice","trial_index":32,"time_elapsed":246024,"internal_node_id":"0.0-1.0-31.0"},{"rt":3375,"responses":"{\"Q0\":\"Magnolia Warbler\"}","bird":["Magnolia Warbler"],"family":["Wood-Warblers"],"class":["758"],"trial_type":"image-multi-choice","trial_index":33,"time_elapsed":250421,"internal_node_id":"0.0-1.0-32.0"},{"rt":4141,"responses":"{\"Q0\":\"Song Sparrow\"}","bird":["Song Sparrow"],"family":["New World Sparrows and Allies"],"class":["902"],"trial_type":"image-multi-choice","trial_index":34,"time_elapsed":255578,"internal_node_id":"0.0-1.0-33.0"},{"rt":4172,"responses":"{\"Q0\":\"Lark Sparrow\"}","bird":["Lark Sparrow"],"family":["New World Sparrows and Allies"],"class":["899"],"trial_type":"image-multi-choice","trial_index":35,"time_elapsed":260768,"internal_node_id":"0.0-1.0-34.0"},{"rt":8682,"responses":"{\"Q0\":\"Orange-crowned Warbler\"}","bird":["Nashville Warbler"],"family":["Wood-Warblers"],"class":["868"],"trial_type":"image-multi-choice","trial_index":36,"time_elapsed":270466,"internal_node_id":"0.0-1.0-35.0"},{"rt":5521,"responses":"{\"Q0\":\"Northern Waterthrush\"}","bird":["Northern Waterthrush"],"family":["Wood-Warblers"],"class":["862"],"trial_type":"image-multi-choice","trial_index":37,"time_elapsed":277004,"internal_node_id":"0.0-1.0-36.0"},{"rt":4136,"responses":"{\"Q0\":\"Chipping Sparrow\"}","bird":["Chipping Sparrow"],"family":["New World Sparrows and Allies"],"class":["769"],"trial_type":"image-multi-choice","trial_index":38,"time_elapsed":282162,"internal_node_id":"0.0-1.0-37.0"},{"rt":2811,"responses":"{\"Q0\":\"Yellow Warbler\"}","bird":["Yellow Warbler"],"family":["Wood-Warblers"],"class":["875"],"trial_type":"image-multi-choice","trial_index":39,"time_elapsed":285991,"internal_node_id":"0.0-1.0-38.0"},{"rt":6159,"responses":"{\"Q0\":\"Ovenbird\"}","bird":["Ovenbird"],"family":["Wood-Warblers"],"class":["860"],"trial_type":"image-multi-choice","trial_index":40,"time_elapsed":293169,"internal_node_id":"0.0-1.0-39.0"},{"rt":5295,"responses":"{\"Q0\":\"Black-and-white Warbler\"}","bird":["Black-and-white Warbler"],"family":["Wood-Warblers"],"class":["864"],"trial_type":"image-multi-choice","trial_index":41,"time_elapsed":299480,"internal_node_id":"0.0-1.0-40.0"},{"rt":13162,"responses":"{\"Q0\":\"Lincoln's Sparrow\"}","bird":["Tennessee Warbler"],"family":["Wood-Warblers"],"class":["866"],"trial_type":"image-multi-choice","trial_index":42,"time_elapsed":313658,"internal_node_id":"0.0-1.0-41.0"},{"rt":8732,"responses":"{\"Q0\":\"Song Sparrow\"}","bird":["Song Sparrow"],"family":["New World Sparrows and Allies"],"class":["902"],"trial_type":"image-multi-choice","trial_index":43,"time_elapsed":323408,"internal_node_id":"0.0-1.0-42.0"},{"rt":5288,"responses":"{\"Q0\":\"Black-and-white Warbler\"}","bird":["Blackburnian Warbler"],"family":["Wood-Warblers"],"class":["874"],"trial_type":"image-multi-choice","trial_index":44,"time_elapsed":329713,"internal_node_id":"0.0-1.0-43.0"},{"rt":16511,"responses":"{\"Q0\":\"Northern Waterthrush\"}","bird":["Black-and-white Warbler"],"family":["Wood-Warblers"],"class":["864"],"trial_type":"image-multi-choice","trial_index":45,"time_elapsed":347243,"internal_node_id":"0.0-1.0-44.0"},{"rt":3579,"responses":"{\"Q0\":\"Magnolia Warbler\"}","bird":["Magnolia Warbler"],"family":["Wood-Warblers"],"class":["758"],"trial_type":"image-multi-choice","trial_index":46,"time_elapsed":351836,"internal_node_id":"0.0-1.0-45.0"},{"rt":3262,"responses":"{\"Q0\":\"Ovenbird\"}","bird":["Ovenbird"],"family":["Wood-Warblers"],"class":["860"],"trial_type":"image-multi-choice","trial_index":47,"time_elapsed":356114,"internal_node_id":"0.0-1.0-46.0"},{"rt":5015,"responses":"{\"Q0\":\"Swamp Sparrow\"}","bird":["Vesper Sparrow"],"family":["New World Sparrows and Allies"],"class":["898"],"trial_type":"image-multi-choice","trial_index":48,"time_elapsed":362144,"internal_node_id":"0.0-1.0-47.0"},{"rt":7888,"responses":"{\"Q0\":\"Lark Sparrow\"}","bird":["Lark Sparrow"],"family":["New World Sparrows and Allies"],"class":["899"],"trial_type":"image-multi-choice","trial_index":49,"time_elapsed":371047,"internal_node_id":"0.0-1.0-48.0"},{"rt":11157,"responses":"{\"Q0\":\"Lark Sparrow\"}","bird":["Black-and-white Warbler"],"family":["Wood-Warblers"],"class":["864"],"trial_type":"image-multi-choice","trial_index":50,"time_elapsed":383227,"internal_node_id":"0.0-1.0-49.0"},{"rt":12302,"responses":"{\"Q0\":\"Blackburnian Warbler\"}","bird":["Townsend's Warbler"],"family":["Wood-Warblers"],"class":["881"],"trial_type":"image-multi-choice","trial_index":51,"time_elapsed":396547,"internal_node_id":"0.0-1.0-50.0"},{"rt":6422,"responses":"{\"Q0\":\"Nashville Warbler\"}","bird":["Nashville Warbler"],"family":["Wood-Warblers"],"class":["868"],"trial_type":"image-multi-choice","trial_index":52,"time_elapsed":403987,"internal_node_id":"0.0-1.0-51.0"},{"rt":7031,"responses":"{\"Q0\":\"Chipping Sparrow\"}","bird":["Chipping Sparrow"],"family":["New World Sparrows and Allies"],"class":["769"],"trial_type":"image-multi-choice","trial_index":53,"time_elapsed":412035,"internal_node_id":"0.0-1.0-52.0"},{"rt":19010,"responses":"{\"Q0\":\"Lincoln's Sparrow\"}","bird":["Swamp Sparrow"],"family":["New World Sparrows and Allies"],"class":["904"],"trial_type":"image-multi-choice","trial_index":54,"time_elapsed":432062,"internal_node_id":"0.0-1.0-53.0"},{"rt":3747,"responses":"{\"Q0\":\"White-crowned Sparrow\"}","bird":["White-crowned Sparrow"],"family":["New World Sparrows and Allies"],"class":["766"],"trial_type":"image-multi-choice","trial_index":55,"time_elapsed":436826,"internal_node_id":"0.0-1.0-54.0"},{"rt":4076,"responses":"{\"Q0\":\"Black-and-white Warbler\"}","bird":["Black-and-white Warbler"],"family":["Wood-Warblers"],"class":["864"],"trial_type":"image-multi-choice","trial_index":56,"time_elapsed":441920,"internal_node_id":"0.0-1.0-55.0"},{"rt":10376,"responses":"{\"Q0\":\"Nashville Warbler\"}","bird":["Tennessee Warbler"],"family":["Wood-Warblers"],"class":["866"],"trial_type":"image-multi-choice","trial_index":57,"time_elapsed":453313,"internal_node_id":"0.0-1.0-56.0"},{"rt":8230,"responses":"{\"Q0\":\"Blackburnian Warbler\"}","bird":["Townsend's Warbler"],"family":["Wood-Warblers"],"class":["881"],"trial_type":"image-multi-choice","trial_index":58,"time_elapsed":462557,"internal_node_id":"0.0-1.0-57.0"},{"rt":5959,"responses":"{\"Q0\":\"Nashville Warbler\"}","bird":["Nashville Warbler"],"family":["Wood-Warblers"],"class":["868"],"trial_type":"image-multi-choice","trial_index":59,"time_elapsed":469536,"internal_node_id":"0.0-1.0-58.0"},{"rt":5225,"responses":"{\"Q0\":\"Lincoln's Sparrow\"}","bird":["Lincoln's Sparrow"],"family":["New World Sparrows and Allies"],"class":["903"],"trial_type":"image-multi-choice","trial_index":60,"time_elapsed":482552,"internal_node_id":"0.0-1.0-59.0"},{"rt":8336,"responses":"{\"Q0\":\"Swamp Sparrow\"}","bird":["Song Sparrow"],"family":["New World Sparrows and Allies"],"class":["902"],"trial_type":"image-multi-choice","trial_index":61,"time_elapsed":491905,"internal_node_id":"0.0-1.0-60.0"},{"rt":2890,"responses":"{\"Q0\":\"Yellow Warbler\"}","bird":["Yellow Warbler"],"family":["Wood-Warblers"],"class":["875"],"trial_type":"image-multi-choice","trial_index":62,"time_elapsed":495814,"internal_node_id":"0.0-1.0-61.0"},{"rt":4619,"responses":"{\"Q0\":\"White-throated Sparrow\"}","bird":["White-throated Sparrow"],"family":["New World Sparrows and Allies"],"class":["764"],"trial_type":"image-multi-choice","trial_index":63,"time_elapsed":501451,"internal_node_id":"0.0-1.0-62.0"},{"rt":5130,"responses":"{\"Q0\":\"Tennessee Warbler\"}","bird":["Tennessee Warbler"],"family":["Wood-Warblers"],"class":["866"],"trial_type":"image-multi-choice","trial_index":64,"time_elapsed":507597,"internal_node_id":"0.0-1.0-63.0"},{"rt":7989,"responses":"{\"Q0\":\"Lincoln's Sparrow\"}","bird":["Lincoln's Sparrow"],"family":["New World Sparrows and Allies"],"class":["903"],"trial_type":"image-multi-choice","trial_index":65,"time_elapsed":516609,"internal_node_id":"0.0-1.0-64.0"},{"rt":4829,"responses":"{\"Q0\":\"Black-and-white Warbler\"}","bird":["Blackburnian Warbler"],"family":["Wood-Warblers"],"class":["874"],"trial_type":"image-multi-choice","trial_index":66,"time_elapsed":522458,"internal_node_id":"0.0-1.0-65.0"},{"rt":4509,"responses":"{\"Q0\":\"Northern Waterthrush\"}","bird":["Northern Waterthrush"],"family":["Wood-Warblers"],"class":["862"],"trial_type":"image-multi-choice","trial_index":67,"time_elapsed":527986,"internal_node_id":"0.0-1.0-66.0"},{"rt":2171,"responses":"{\"Q0\":\"Yellow Warbler\"}","bird":["Yellow Warbler"],"family":["Wood-Warblers"],"class":["875"],"trial_type":"image-multi-choice","trial_index":68,"time_elapsed":531175,"internal_node_id":"0.0-1.0-67.0"},{"rt":4891,"responses":"{\"Q0\":\"Lincoln's Sparrow\"}","bird":["Lincoln's Sparrow"],"family":["New World Sparrows and Allies"],"class":["903"],"trial_type":"image-multi-choice","trial_index":69,"time_elapsed":537083,"internal_node_id":"0.0-1.0-68.0"},{"rt":6298,"responses":"{\"Q0\":\"Vesper Sparrow\"}","bird":["American Tree Sparrow"],"family":["New World Sparrows and Allies"],"class":["894"],"trial_type":"image-multi-choice","trial_index":70,"time_elapsed":544398,"internal_node_id":"0.0-1.0-69.0"},{"rt":3895,"responses":"{\"Q0\":\"Orange-crowned Warbler\"}","bird":["Orange-crowned Warbler"],"family":["Wood-Warblers"],"class":["867"],"trial_type":"image-multi-choice","trial_index":71,"time_elapsed":549308,"internal_node_id":"0.0-1.0-70.0"},{"rt":6395,"responses":"{\"Q0\":\"Lincoln's Sparrow\"}","bird":["Lincoln's Sparrow"],"family":["New World Sparrows and Allies"],"class":["903"],"trial_type":"image-multi-choice","trial_index":72,"time_elapsed":556723,"internal_node_id":"0.0-1.0-71.0"},{"rt":6402,"responses":"{\"Q0\":\"Magnolia Warbler\"}","bird":["Magnolia Warbler"],"family":["Wood-Warblers"],"class":["758"],"trial_type":"image-multi-choice","trial_index":73,"time_elapsed":564147,"internal_node_id":"0.0-1.0-72.0"},{"rt":7200,"responses":"{\"Q0\":\"Vesper Sparrow\"}","bird":["Lincoln's Sparrow"],"family":["New World Sparrows and Allies"],"class":["903"],"trial_type":"image-multi-choice","trial_index":74,"time_elapsed":572365,"internal_node_id":"0.0-1.0-73.0"},{"rt":6313,"responses":"{\"Q0\":\"Orange-crowned Warbler\"}","bird":["Yellow Warbler"],"family":["Wood-Warblers"],"class":["875"],"trial_type":"image-multi-choice","trial_index":75,"time_elapsed":579696,"internal_node_id":"0.0-1.0-74.0"},{"rt":3208,"responses":"{\"Q0\":\"White-crowned Sparrow\"}","bird":["White-crowned Sparrow"],"family":["New World Sparrows and Allies"],"class":["766"],"trial_type":"image-multi-choice","trial_index":76,"time_elapsed":583920,"internal_node_id":"0.0-1.0-75.0"},{"rt":7284,"responses":"{\"Q0\":\"Nashville Warbler\"}","bird":["Nashville Warbler"],"family":["Wood-Warblers"],"class":["868"],"trial_type":"image-multi-choice","trial_index":77,"time_elapsed":592255,"internal_node_id":"0.0-1.0-76.0"},{"rt":13207,"responses":"{\"Q0\":\"American Tree Sparrow\"}","bird":["American Tree Sparrow"],"family":["New World Sparrows and Allies"],"class":["894"],"trial_type":"image-multi-choice","trial_index":78,"time_elapsed":606482,"internal_node_id":"0.0-1.0-77.0"},{"rt":6266,"responses":"{\"Q0\":\"Black-and-white Warbler\"}","bird":["Townsend's Warbler"],"family":["Wood-Warblers"],"class":["881"],"trial_type":"image-multi-choice","trial_index":79,"time_elapsed":613765,"internal_node_id":"0.0-1.0-78.0"},{"rt":9553,"responses":"{\"Q0\":\"Swamp Sparrow\"}","bird":["Chipping Sparrow"],"family":["New World Sparrows and Allies"],"class":["769"],"trial_type":"image-multi-choice","trial_index":80,"time_elapsed":624333,"internal_node_id":"0.0-1.0-79.0"},{"rt":3478,"responses":"{\"Q0\":\"White-throated Sparrow\"}","bird":["White-throated Sparrow"],"family":["New World Sparrows and Allies"],"class":["764"],"trial_type":"image-multi-choice","trial_index":81,"time_elapsed":628827,"internal_node_id":"0.0-1.0-80.0"},{"rt":2973,"responses":"{\"Q0\":\"Ovenbird\"}","bird":["Ovenbird"],"family":["Wood-Warblers"],"class":["860"],"trial_type":"image-multi-choice","trial_index":82,"time_elapsed":632818,"internal_node_id":"0.0-1.0-81.0"},{"rt":2676,"responses":"{\"Q0\":\"White-crowned Sparrow\"}","bird":["White-crowned Sparrow"],"family":["New World Sparrows and Allies"],"class":["766"],"trial_type":"image-multi-choice","trial_index":83,"time_elapsed":636510,"internal_node_id":"0.0-1.0-82.0"},{"rt":5002,"responses":"{\"Q0\":\"Magnolia Warbler\"}","bird":["Magnolia Warbler"],"family":["Wood-Warblers"],"class":["758"],"trial_type":"image-multi-choice","trial_index":84,"time_elapsed":642533,"internal_node_id":"0.0-1.0-83.0"},{"rt":6789,"responses":"{\"Q0\":\"Yellow Warbler\"}","bird":["Yellow Warbler"],"family":["Wood-Warblers"],"class":["875"],"trial_type":"image-multi-choice","trial_index":85,"time_elapsed":650340,"internal_node_id":"0.0-1.0-84.0"},{"rt":3475,"responses":"{\"Q0\":\"Lark Sparrow\"}","bird":["Lark Sparrow"],"family":["New World Sparrows and Allies"],"class":["899"],"trial_type":"image-multi-choice","trial_index":86,"time_elapsed":654834,"internal_node_id":"0.0-1.0-85.0"},{"rt":5178,"responses":"{\"Q0\":\"Lincoln's Sparrow\"}","bird":["Lincoln's Sparrow"],"family":["New World Sparrows and Allies"],"class":["903"],"trial_type":"image-multi-choice","trial_index":87,"time_elapsed":661030,"internal_node_id":"0.0-1.0-86.0"},{"rt":5914,"responses":"{\"Q0\":\"Black-and-white Warbler\"}","bird":["Black-and-white Warbler"],"family":["Wood-Warblers"],"class":["864"],"trial_type":"image-multi-choice","trial_index":88,"time_elapsed":667960,"internal_node_id":"0.0-1.0-87.0"},{"rt":2496,"responses":"{\"Q0\":\"White-crowned Sparrow\"}","bird":["White-crowned Sparrow"],"family":["New World Sparrows and Allies"],"class":["766"],"trial_type":"image-multi-choice","trial_index":89,"time_elapsed":671474,"internal_node_id":"0.0-1.0-88.0"},{"rt":13396,"responses":"{\"Q0\":\"Townsend's Warbler\"}","bird":["Townsend's Warbler"],"family":["Wood-Warblers"],"class":["881"],"trial_type":"image-multi-choice","trial_index":90,"time_elapsed":685889,"internal_node_id":"0.0-1.0-89.0"},{"rt":2335,"responses":"{\"Q0\":\"White-throated Sparrow\"}","bird":["White-throated Sparrow"],"family":["New World Sparrows and Allies"],"class":["764"],"trial_type":"image-multi-choice","trial_index":91,"time_elapsed":689242,"internal_node_id":"0.0-1.0-90.0"},{"rt":3067,"responses":"{\"Q0\":\"Magnolia Warbler\"}","bird":["Magnolia Warbler"],"family":["Wood-Warblers"],"class":["758"],"trial_type":"image-multi-choice","trial_index":92,"time_elapsed":693327,"internal_node_id":"0.0-1.0-91.0"},{"rt":4599,"responses":"{\"Q0\":\"Vesper Sparrow\"}","bird":["Lincoln's Sparrow"],"family":["New World Sparrows and Allies"],"class":["903"],"trial_type":"image-multi-choice","trial_index":93,"time_elapsed":698947,"internal_node_id":"0.0-1.0-92.0"},{"rt":6437,"responses":"{\"Q0\":\"Townsend's Warbler\"}","bird":["Blackburnian Warbler"],"family":["Wood-Warblers"],"class":["874"],"trial_type":"image-multi-choice","trial_index":94,"time_elapsed":706400,"internal_node_id":"0.0-1.0-93.0"},{"rt":7747,"responses":"{\"Q0\":\"Vesper Sparrow\"}","bird":["Vesper Sparrow"],"family":["New World Sparrows and Allies"],"class":["898"],"trial_type":"image-multi-choice","trial_index":95,"time_elapsed":715165,"internal_node_id":"0.0-1.0-94.0"},{"rt":3890,"responses":"{\"Q0\":\"Lark Sparrow\"}","bird":["Lark Sparrow"],"family":["New World Sparrows and Allies"],"class":["899"],"trial_type":"image-multi-choice","trial_index":96,"time_elapsed":720072,"internal_node_id":"0.0-1.0-95.0"},{"rt":2800,"responses":"{\"Q0\":\"White-throated Sparrow\"}","bird":["Swamp Sparrow"],"family":["New World Sparrows and Allies"],"class":["904"],"trial_type":"image-multi-choice","trial_index":97,"time_elapsed":723889,"internal_node_id":"0.0-1.0-96.0"},{"rt":3216,"responses":"{\"Q0\":\"Northern Waterthrush\"}","bird":["Northern Waterthrush"],"family":["Wood-Warblers"],"class":["862"],"trial_type":"image-multi-choice","trial_index":98,"time_elapsed":728121,"internal_node_id":"0.0-1.0-97.0"},{"rt":2727,"responses":"{\"Q0\":\"Ovenbird\"}","bird":["Ovenbird"],"family":["Wood-Warblers"],"class":["860"],"trial_type":"image-multi-choice","trial_index":99,"time_elapsed":731867,"internal_node_id":"0.0-1.0-98.0"},{"rt":2350,"responses":"{\"Q0\":\"White-throated Sparrow\"}","bird":["White-throated Sparrow"],"family":["New World Sparrows and Allies"],"class":["764"],"trial_type":"image-multi-choice","trial_index":100,"time_elapsed":735234,"internal_node_id":"0.0-1.0-99.0"},{"rt":3461,"responses":"{\"Q0\":\"Nashville Warbler\"}","bird":["Nashville Warbler"],"family":["Wood-Warblers"],"class":["868"],"trial_type":"image-multi-choice","trial_index":101,"time_elapsed":739713,"internal_node_id":"0.0-1.0-100.0"},{"rt":7382,"responses":"{\"Q0\":\"Townsend's Warbler\"}","bird":["Magnolia Warbler"],"family":["Wood-Warblers"],"class":["758"],"trial_type":"image-multi-choice","trial_index":102,"time_elapsed":748113,"internal_node_id":"0.0-1.0-101.0"},{"rt":5831,"responses":"{\"Q0\":\"White-throated Sparrow\"}","bird":["Swamp Sparrow"],"family":["New World Sparrows and Allies"],"class":["904"],"trial_type":"image-multi-choice","trial_index":103,"time_elapsed":754959,"internal_node_id":"0.0-1.0-102.0"},{"rt":3401,"responses":"{\"Q0\":\"Blackburnian Warbler\"}","bird":["Blackburnian Warbler"],"family":["Wood-Warblers"],"class":["874"],"trial_type":"image-multi-choice","trial_index":104,"time_elapsed":759375,"internal_node_id":"0.0-1.0-103.0"},{"rt":4433,"responses":"{\"Q0\":\"Ovenbird\"}","bird":["Northern Waterthrush"],"family":["Wood-Warblers"],"class":["862"],"trial_type":"image-multi-choice","trial_index":105,"time_elapsed":764826,"internal_node_id":"0.0-1.0-104.0"},{"rt":6374,"responses":"{\"Q0\":\"American Tree Sparrow\"}","bird":["Swamp Sparrow"],"family":["New World Sparrows and Allies"],"class":["904"],"trial_type":"image-multi-choice","trial_index":106,"time_elapsed":772218,"internal_node_id":"0.0-1.0-105.0"},{"rt":3726,"responses":"{\"Q0\":\"Song Sparrow\"}","bird":["Song Sparrow"],"family":["New World Sparrows and Allies"],"class":["902"],"trial_type":"image-multi-choice","trial_index":107,"time_elapsed":776963,"internal_node_id":"0.0-1.0-106.0"},{"rt":3415,"responses":"{\"Q0\":\"Black-and-white Warbler\"}","bird":["Black-and-white Warbler"],"family":["Wood-Warblers"],"class":["864"],"trial_type":"image-multi-choice","trial_index":108,"time_elapsed":781396,"internal_node_id":"0.0-1.0-107.0"},{"rt":4469,"responses":"{\"Q0\":\"Blackburnian Warbler\"}","bird":["Blackburnian Warbler"],"family":["Wood-Warblers"],"class":["874"],"trial_type":"image-multi-choice","trial_index":109,"time_elapsed":786883,"internal_node_id":"0.0-1.0-108.0"},{"rt":2687,"responses":"{\"Q0\":\"Nashville Warbler\"}","bird":["Nashville Warbler"],"family":["Wood-Warblers"],"class":["868"],"trial_type":"image-multi-choice","trial_index":110,"time_elapsed":790591,"internal_node_id":"0.0-1.0-109.0"},{"rt":7475,"responses":"{\"Q0\":\"Chipping Sparrow\"}","bird":["Chipping Sparrow"],"family":["New World Sparrows and Allies"],"class":["769"],"trial_type":"image-multi-choice","trial_index":111,"time_elapsed":799086,"internal_node_id":"0.0-1.0-110.0"},{"rt":6105,"responses":"{\"Q0\":\"Swamp Sparrow\"}","bird":["American Tree Sparrow"],"family":["New World Sparrows and Allies"],"class":["894"],"trial_type":"image-multi-choice","trial_index":112,"time_elapsed":806207,"internal_node_id":"0.0-1.0-111.0"},{"rt":4824,"responses":"{\"Q0\":\"Northern Waterthrush\"}","bird":["Northern Waterthrush"],"family":["Wood-Warblers"],"class":["862"],"trial_type":"image-multi-choice","trial_index":113,"time_elapsed":812050,"internal_node_id":"0.0-1.0-112.0"},{"rt":2151,"responses":"{\"Q0\":\"Yellow Warbler\"}","bird":["Yellow Warbler"],"family":["Wood-Warblers"],"class":["875"],"trial_type":"image-multi-choice","trial_index":114,"time_elapsed":815220,"internal_node_id":"0.0-1.0-113.0"},{"rt":2701,"responses":"{\"Q0\":\"Tennessee Warbler\"}","bird":["Tennessee Warbler"],"family":["Wood-Warblers"],"class":["866"],"trial_type":"image-multi-choice","trial_index":115,"time_elapsed":818937,"internal_node_id":"0.0-1.0-114.0"},{"rt":6296,"responses":"{\"Q0\":\"Lincoln's Sparrow\"}","bird":["Lincoln's Sparrow"],"family":["New World Sparrows and Allies"],"class":["903"],"trial_type":"image-multi-choice","trial_index":116,"time_elapsed":826250,"internal_node_id":"0.0-1.0-115.0"},{"rt":7078,"responses":"{\"Q0\":\"Black-and-white Warbler\"}","bird":["Black-and-white Warbler"],"family":["Wood-Warblers"],"class":["864"],"trial_type":"image-multi-choice","trial_index":117,"time_elapsed":834344,"internal_node_id":"0.0-1.0-116.0"},{"rt":11779,"responses":"{\"Q0\":\"Fox Sparrow\"}","bird":["Song Sparrow"],"family":["New World Sparrows and Allies"],"class":["902"],"trial_type":"image-multi-choice","trial_index":118,"time_elapsed":847141,"internal_node_id":"0.0-1.0-117.0"},{"rt":5627,"responses":"{\"Q0\":\"Lincoln's Sparrow\"}","bird":["Lincoln's Sparrow"],"family":["New World Sparrows and Allies"],"class":["903"],"trial_type":"image-multi-choice","trial_index":119,"time_elapsed":853786,"internal_node_id":"0.0-1.0-118.0"},{"rt":3909,"responses":"{\"Q0\":\"Blackburnian Warbler\"}","bird":["Blackburnian Warbler"],"family":["Wood-Warblers"],"class":["874"],"trial_type":"image-multi-choice","trial_index":120,"time_elapsed":873118,"internal_node_id":"0.0-1.0-119.0"},{"rt":4720,"responses":"{\"Q0\":\"Nashville Warbler\"}","bird":["Nashville Warbler"],"family":["Wood-Warblers"],"class":["868"],"trial_type":"image-multi-choice","trial_index":121,"time_elapsed":878855,"internal_node_id":"0.0-1.0-120.0"},{"rt":4670,"responses":"{\"Q0\":\"Lincoln's Sparrow\"}","bird":["Vesper Sparrow"],"family":["New World Sparrows and Allies"],"class":["898"],"trial_type":"image-multi-choice","trial_index":122,"time_elapsed":884544,"internal_node_id":"0.0-1.0-121.0"},{"rt":8024,"responses":"{\"Q0\":\"Northern Waterthrush\"}","bird":["Townsend's Warbler"],"family":["Wood-Warblers"],"class":["881"],"trial_type":"image-multi-choice","trial_index":123,"time_elapsed":893585,"internal_node_id":"0.0-1.0-122.0"},{"rt":5993,"responses":"{\"Q0\":\"Fox Sparrow\"}","bird":["Song Sparrow"],"family":["New World Sparrows and Allies"],"class":["902"],"trial_type":"image-multi-choice","trial_index":124,"time_elapsed":900600,"internal_node_id":"0.0-1.0-123.0"},{"rt":2592,"responses":"{\"Q0\":\"White-throated Sparrow\"}","bird":["White-throated Sparrow"],"family":["New World Sparrows and Allies"],"class":["764"],"trial_type":"image-multi-choice","trial_index":125,"time_elapsed":904208,"internal_node_id":"0.0-1.0-124.0"},{"rt":2522,"responses":"{\"Q0\":\"Nashville Warbler\"}","bird":["Nashville Warbler"],"family":["Wood-Warblers"],"class":["868"],"trial_type":"image-multi-choice","trial_index":126,"time_elapsed":907746,"internal_node_id":"0.0-1.0-125.0"},{"rt":5782,"responses":"{\"Q0\":\"Fox Sparrow\"}","bird":["Fox Sparrow"],"family":["New World Sparrows and Allies"],"class":["901"],"trial_type":"image-multi-choice","trial_index":127,"time_elapsed":914543,"internal_node_id":"0.0-1.0-126.0"},{"rt":3830,"responses":"{\"Q0\":\"Magnolia Warbler\"}","bird":["Magnolia Warbler"],"family":["Wood-Warblers"],"class":["758"],"trial_type":"image-multi-choice","trial_index":128,"time_elapsed":919393,"internal_node_id":"0.0-1.0-127.0"},{"rt":4459,"responses":"{\"Q0\":\"Tennessee Warbler\"}","bird":["Nashville Warbler"],"family":["Wood-Warblers"],"class":["868"],"trial_type":"image-multi-choice","trial_index":129,"time_elapsed":924870,"internal_node_id":"0.0-1.0-128.0"},{"rt":11191,"responses":"{\"Q0\":\"Chipping Sparrow\"}","bird":["Swamp Sparrow"],"family":["New World Sparrows and Allies"],"class":["904"],"trial_type":"image-multi-choice","trial_index":130,"time_elapsed":937079,"internal_node_id":"0.0-1.0-129.0"},{"rt":2669,"responses":"{\"Q0\":\"White-throated Sparrow\"}","bird":["White-throated Sparrow"],"family":["New World Sparrows and Allies"],"class":["764"],"trial_type":"image-multi-choice","trial_index":131,"time_elapsed":940771,"internal_node_id":"0.0-1.0-130.0"},{"rt":8871,"responses":"{\"Q0\":\"Swamp Sparrow\"}","bird":["Song Sparrow"],"family":["New World Sparrows and Allies"],"class":["902"],"trial_type":"image-multi-choice","trial_index":132,"time_elapsed":950669,"internal_node_id":"0.0-1.0-131.0"},{"rt":7993,"responses":"{\"Q0\":\"Yellow Warbler\"}","bird":["Yellow Warbler"],"family":["Wood-Warblers"],"class":["875"],"trial_type":"image-multi-choice","trial_index":133,"time_elapsed":959679,"internal_node_id":"0.0-1.0-132.0"},{"rt":6607,"responses":"{\"Q0\":\"Northern Waterthrush\"}","bird":["Townsend's Warbler"],"family":["Wood-Warblers"],"class":["881"],"trial_type":"image-multi-choice","trial_index":134,"time_elapsed":967302,"internal_node_id":"0.0-1.0-133.0"},{"rt":3554,"responses":"{\"Q0\":\"Fox Sparrow\"}","bird":["Fox Sparrow"],"family":["New World Sparrows and Allies"],"class":["901"],"trial_type":"image-multi-choice","trial_index":135,"time_elapsed":971873,"internal_node_id":"0.0-1.0-134.0"},{"rt":5434,"responses":"{\"Q0\":\"White-crowned Sparrow\"}","bird":["White-crowned Sparrow"],"family":["New World Sparrows and Allies"],"class":["766"],"trial_type":"image-multi-choice","trial_index":136,"time_elapsed":978325,"internal_node_id":"0.0-1.0-135.0"},{"rt":5902,"responses":"{\"Q0\":\"Townsend's Warbler\"}","bird":["Magnolia Warbler"],"family":["Wood-Warblers"],"class":["758"],"trial_type":"image-multi-choice","trial_index":137,"time_elapsed":985245,"internal_node_id":"0.0-1.0-136.0"},{"rt":5983,"responses":"{\"Q0\":\"Townsend's Warbler\"}","bird":["Blackburnian Warbler"],"family":["Wood-Warblers"],"class":["874"],"trial_type":"image-multi-choice","trial_index":138,"time_elapsed":992244,"internal_node_id":"0.0-1.0-137.0"},{"rt":3661,"responses":"{\"Q0\":\"Townsend's Warbler\"}","bird":["Magnolia Warbler"],"family":["Wood-Warblers"],"class":["758"],"trial_type":"image-multi-choice","trial_index":139,"time_elapsed":996924,"internal_node_id":"0.0-1.0-138.0"},{"rt":6682,"responses":"{\"Q0\":\"American Tree Sparrow\"}","bird":["Chipping Sparrow"],"family":["New World Sparrows and Allies"],"class":["769"],"trial_type":"image-multi-choice","trial_index":140,"time_elapsed":1004624,"internal_node_id":"0.0-1.0-139.0"},{"rt":3998,"responses":"{\"Q0\":\"Song Sparrow\"}","bird":["American Tree Sparrow"],"family":["New World Sparrows and Allies"],"class":["894"],"trial_type":"image-multi-choice","trial_index":141,"time_elapsed":1009643,"internal_node_id":"0.0-1.0-140.0"},{"rt":2987,"responses":"{\"Q0\":\"Tennessee Warbler\"}","bird":["Orange-crowned Warbler"],"family":["Wood-Warblers"],"class":["867"],"trial_type":"image-multi-choice","trial_index":142,"time_elapsed":1013649,"internal_node_id":"0.0-1.0-141.0"},{"rt":3066,"responses":"{\"Q0\":\"Fox Sparrow\"}","bird":["Fox Sparrow"],"family":["New World Sparrows and Allies"],"class":["901"],"trial_type":"image-multi-choice","trial_index":143,"time_elapsed":1017734,"internal_node_id":"0.0-1.0-142.0"},{"rt":4123,"responses":"{\"Q0\":\"Yellow Warbler\"}","bird":["Yellow Warbler"],"family":["Wood-Warblers"],"class":["875"],"trial_type":"image-multi-choice","trial_index":144,"time_elapsed":1022875,"internal_node_id":"0.0-1.0-143.0"},{"rt":6303,"responses":"{\"Q0\":\"Swamp Sparrow\"}","bird":["American Tree Sparrow"],"family":["New World Sparrows and Allies"],"class":["894"],"trial_type":"image-multi-choice","trial_index":145,"time_elapsed":1030197,"internal_node_id":"0.0-1.0-144.0"},{"rt":7000,"responses":"{\"Q0\":\"Vesper Sparrow\"}","bird":["Swamp Sparrow"],"family":["New World Sparrows and Allies"],"class":["904"],"trial_type":"image-multi-choice","trial_index":146,"time_elapsed":1038212,"internal_node_id":"0.0-1.0-145.0"},{"rt":6199,"responses":"{\"Q0\":\"Lark Sparrow\"}","bird":["Lark Sparrow"],"family":["New World Sparrows and Allies"],"class":["899"],"trial_type":"image-multi-choice","trial_index":147,"time_elapsed":1045428,"internal_node_id":"0.0-1.0-146.0"},{"rt":5018,"responses":"{\"Q0\":\"Vesper Sparrow\"}","bird":["Vesper Sparrow"],"family":["New World Sparrows and Allies"],"class":["898"],"trial_type":"image-multi-choice","trial_index":148,"time_elapsed":1051464,"internal_node_id":"0.0-1.0-147.0"},{"rt":9166,"responses":"{\"Q0\":\"Song Sparrow\"}","bird":["Fox Sparrow"],"family":["New World Sparrows and Allies"],"class":["901"],"trial_type":"image-multi-choice","trial_index":149,"time_elapsed":1061654,"internal_node_id":"0.0-1.0-148.0"},{"rt":4260,"responses":"{\"Q0\":\"White-throated Sparrow\"}","bird":["Song Sparrow"],"family":["New World Sparrows and Allies"],"class":["902"],"trial_type":"image-multi-choice","trial_index":150,"time_elapsed":1066933,"internal_node_id":"0.0-1.0-149.0"},{"rt":4857,"responses":"{\"Q0\":\"Blackburnian Warbler\"}","bird":["Blackburnian Warbler"],"family":["Wood-Warblers"],"class":["874"],"trial_type":"image-multi-choice","trial_index":151,"time_elapsed":1072807,"internal_node_id":"0.0-1.0-150.0"},{"rt":2835,"responses":"{\"Q0\":\"Tennessee Warbler\"}","bird":["Orange-crowned Warbler"],"family":["Wood-Warblers"],"class":["867"],"trial_type":"image-multi-choice","trial_index":152,"time_elapsed":1076662,"internal_node_id":"0.0-1.0-151.0"},{"rt":3309,"responses":"{\"Q0\":\"Fox Sparrow\"}","bird":["Fox Sparrow"],"family":["New World Sparrows and Allies"],"class":["901"],"trial_type":"image-multi-choice","trial_index":153,"time_elapsed":1080986,"internal_node_id":"0.0-1.0-152.0"},{"rt":2914,"responses":"{\"Q0\":\"Tennessee Warbler\"}","bird":["Orange-crowned Warbler"],"family":["Wood-Warblers"],"class":["867"],"trial_type":"image-multi-choice","trial_index":154,"time_elapsed":1084917,"internal_node_id":"0.0-1.0-153.0"},{"rt":5041,"responses":"{\"Q0\":\"Townsend's Warbler\"}","bird":["Townsend's Warbler"],"family":["Wood-Warblers"],"class":["881"],"trial_type":"image-multi-choice","trial_index":155,"time_elapsed":1090974,"internal_node_id":"0.0-1.0-154.0"},{"rt":4673,"responses":"{\"Q0\":\"Ovenbird\"}","bird":["Ovenbird"],"family":["Wood-Warblers"],"class":["860"],"trial_type":"image-multi-choice","trial_index":156,"time_elapsed":1096663,"internal_node_id":"0.0-1.0-155.0"},{"rt":9839,"responses":"{\"Q0\":\"Yellow Warbler\"}","bird":["Nashville Warbler"],"family":["Wood-Warblers"],"class":["868"],"trial_type":"image-multi-choice","trial_index":157,"time_elapsed":1107517,"internal_node_id":"0.0-1.0-156.0"},{"rt":7544,"responses":"{\"Q0\":\"Lincoln's Sparrow\"}","bird":["Song Sparrow"],"family":["New World Sparrows and Allies"],"class":["902"],"trial_type":"image-multi-choice","trial_index":158,"time_elapsed":1116079,"internal_node_id":"0.0-1.0-157.0"},{"rt":3145,"responses":"{\"Q0\":\"Yellow Warbler\"}","bird":["Yellow Warbler"],"family":["Wood-Warblers"],"class":["875"],"trial_type":"image-multi-choice","trial_index":159,"time_elapsed":1120241,"internal_node_id":"0.0-1.0-158.0"},{"rt":3022,"responses":"{\"Q0\":\"Fox Sparrow\"}","bird":["Fox Sparrow"],"family":["New World Sparrows and Allies"],"class":["901"],"trial_type":"image-multi-choice","trial_index":160,"time_elapsed":1124280,"internal_node_id":"0.0-1.0-159.0"},{"rt":4960,"responses":"{\"Q0\":\"Black-and-white Warbler\"}","bird":["Black-and-white Warbler"],"family":["Wood-Warblers"],"class":["864"],"trial_type":"image-multi-choice","trial_index":161,"time_elapsed":1130255,"internal_node_id":"0.0-1.0-160.0"},{"rt":4531,"responses":"{\"Q0\":\"Orange-crowned Warbler\"}","bird":["Orange-crowned Warbler"],"family":["Wood-Warblers"],"class":["867"],"trial_type":"image-multi-choice","trial_index":162,"time_elapsed":1135802,"internal_node_id":"0.0-1.0-161.0"},{"rt":7207,"responses":"{\"Q0\":\"Swamp Sparrow\"}","bird":["American Tree Sparrow"],"family":["New World Sparrows and Allies"],"class":["894"],"trial_type":"image-multi-choice","trial_index":163,"time_elapsed":1144025,"internal_node_id":"0.0-1.0-162.0"},{"rt":4222,"responses":"{\"Q0\":\"Townsend's Warbler\"}","bird":["Townsend's Warbler"],"family":["Wood-Warblers"],"class":["881"],"trial_type":"image-multi-choice","trial_index":164,"time_elapsed":1149266,"internal_node_id":"0.0-1.0-163.0"},{"rt":2590,"responses":"{\"Q0\":\"Song Sparrow\"}","bird":["Song Sparrow"],"family":["New World Sparrows and Allies"],"class":["902"],"trial_type":"image-multi-choice","trial_index":165,"time_elapsed":1152874,"internal_node_id":"0.0-1.0-164.0"},{"rt":3833,"responses":"{\"Q0\":\"Orange-crowned Warbler\"}","bird":["Nashville Warbler"],"family":["Wood-Warblers"],"class":["868"],"trial_type":"image-multi-choice","trial_index":166,"time_elapsed":1157721,"internal_node_id":"0.0-1.0-165.0"},{"rt":3499,"responses":"{\"Q0\":\"Tennessee Warbler\"}","bird":["Tennessee Warbler"],"family":["Wood-Warblers"],"class":["866"],"trial_type":"image-multi-choice","trial_index":167,"time_elapsed":1162238,"internal_node_id":"0.0-1.0-166.0"},{"rt":4286,"responses":"{\"Q0\":\"Chipping Sparrow\"}","bird":["Chipping Sparrow"],"family":["New World Sparrows and Allies"],"class":["769"],"trial_type":"image-multi-choice","trial_index":168,"time_elapsed":1167540,"internal_node_id":"0.0-1.0-167.0"},{"rt":2961,"responses":"{\"Q0\":\"Ovenbird\"}","bird":["Ovenbird"],"family":["Wood-Warblers"],"class":["860"],"trial_type":"image-multi-choice","trial_index":169,"time_elapsed":1171517,"internal_node_id":"0.0-1.0-168.0"},{"rt":2381,"responses":"{\"Q0\":\"White-throated Sparrow\"}","bird":["White-throated Sparrow"],"family":["New World Sparrows and Allies"],"class":["764"],"trial_type":"image-multi-choice","trial_index":170,"time_elapsed":1174915,"internal_node_id":"0.0-1.0-169.0"},{"rt":4188,"responses":"{\"Q0\":\"Fox Sparrow\"}","bird":["Fox Sparrow"],"family":["New World Sparrows and Allies"],"class":["901"],"trial_type":"image-multi-choice","trial_index":171,"time_elapsed":1180118,"internal_node_id":"0.0-1.0-170.0"},{"rt":4053,"responses":"{\"Q0\":\"Blackburnian Warbler\"}","bird":["Blackburnian Warbler"],"family":["Wood-Warblers"],"class":["874"],"trial_type":"image-multi-choice","trial_index":172,"time_elapsed":1185189,"internal_node_id":"0.0-1.0-171.0"},{"rt":3733,"responses":"{\"Q0\":\"American Tree Sparrow\"}","bird":["American Tree Sparrow"],"family":["New World Sparrows and Allies"],"class":["894"],"trial_type":"image-multi-choice","trial_index":173,"time_elapsed":1189936,"internal_node_id":"0.0-1.0-172.0"},{"rt":5567,"responses":"{\"Q0\":\"Swamp Sparrow\"}","bird":["Swamp Sparrow"],"family":["New World Sparrows and Allies"],"class":["904"],"trial_type":"image-multi-choice","trial_index":174,"time_elapsed":1196518,"internal_node_id":"0.0-1.0-173.0"},{"rt":6581,"responses":"{\"Q0\":\"Townsend's Warbler\"}","bird":["Townsend's Warbler"],"family":["Wood-Warblers"],"class":["881"],"trial_type":"image-multi-choice","trial_index":175,"time_elapsed":1204116,"internal_node_id":"0.0-1.0-174.0"},{"rt":6012,"responses":"{\"Q0\":\"Orange-crowned Warbler\"}","bird":["Tennessee Warbler"],"family":["Wood-Warblers"],"class":["866"],"trial_type":"image-multi-choice","trial_index":176,"time_elapsed":1211144,"internal_node_id":"0.0-1.0-175.0"},{"rt":2861,"responses":"{\"Q0\":\"Northern Waterthrush\"}","bird":["Northern Waterthrush"],"family":["Wood-Warblers"],"class":["862"],"trial_type":"image-multi-choice","trial_index":177,"time_elapsed":1215023,"internal_node_id":"0.0-1.0-176.0"},{"rt":8699,"responses":"{\"Q0\":\"White-throated Sparrow\"}","bird":["Swamp Sparrow"],"family":["New World Sparrows and Allies"],"class":["904"],"trial_type":"image-multi-choice","trial_index":178,"time_elapsed":1224740,"internal_node_id":"0.0-1.0-177.0"},{"rt":4887,"responses":"{\"Q0\":\"Fox Sparrow\"}","bird":["Fox Sparrow"],"family":["New World Sparrows and Allies"],"class":["901"],"trial_type":"image-multi-choice","trial_index":179,"time_elapsed":1230643,"internal_node_id":"0.0-1.0-178.0"},{"rt":7004,"responses":"{\"Q0\":\"Swamp Sparrow\"}","bird":["American Tree Sparrow"],"family":["New World Sparrows and Allies"],"class":["894"],"trial_type":"image-multi-choice","trial_index":180,"time_elapsed":1242334,"internal_node_id":"0.0-1.0-179.0"},{"rt":3620,"responses":"{\"Q0\":\"Fox Sparrow\"}","bird":["Fox Sparrow"],"family":["New World Sparrows and Allies"],"class":["901"],"trial_type":"image-multi-choice","trial_index":181,"time_elapsed":1246969,"internal_node_id":"0.0-1.0-180.0"},{"rt":7253,"responses":"{\"Q0\":\"Swamp Sparrow\"}","bird":["Vesper Sparrow"],"family":["New World Sparrows and Allies"],"class":["898"],"trial_type":"image-multi-choice","trial_index":182,"time_elapsed":1255239,"internal_node_id":"0.0-1.0-181.0"},{"rt":5189,"responses":"{\"Q0\":\"Lincoln's Sparrow\"}","bird":["Song Sparrow"],"family":["New World Sparrows and Allies"],"class":["902"],"trial_type":"image-multi-choice","trial_index":183,"time_elapsed":1261443,"internal_node_id":"0.0-1.0-182.0"},{"rt":3717,"responses":"{\"Q0\":\"Townsend's Warbler\"}","bird":["Blackburnian Warbler"],"family":["Wood-Warblers"],"class":["874"],"trial_type":"image-multi-choice","trial_index":184,"time_elapsed":1266177,"internal_node_id":"0.0-1.0-183.0"},{"rt":2569,"responses":"{\"Q0\":\"White-crowned Sparrow\"}","bird":["White-crowned Sparrow"],"family":["New World Sparrows and Allies"],"class":["766"],"trial_type":"image-multi-choice","trial_index":185,"time_elapsed":1269761,"internal_node_id":"0.0-1.0-184.0"},{"rt":2999,"responses":"{\"Q0\":\"American Tree Sparrow\"}","bird":["American Tree Sparrow"],"family":["New World Sparrows and Allies"],"class":["894"],"trial_type":"image-multi-choice","trial_index":186,"time_elapsed":1273777,"internal_node_id":"0.0-1.0-185.0"},{"rt":3815,"responses":"{\"Q0\":\"Black-and-white Warbler\"}","bird":["Black-and-white Warbler"],"family":["Wood-Warblers"],"class":["864"],"trial_type":"image-multi-choice","trial_index":187,"time_elapsed":1278609,"internal_node_id":"0.0-1.0-186.0"},{"rt":2442,"responses":"{\"Q0\":\"Lark Sparrow\"}","bird":["Lark Sparrow"],"family":["New World Sparrows and Allies"],"class":["899"],"trial_type":"image-multi-choice","trial_index":188,"time_elapsed":1282068,"internal_node_id":"0.0-1.0-187.0"},{"rt":3262,"responses":"{\"Q0\":\"Nashville Warbler\"}","bird":["Nashville Warbler"],"family":["Wood-Warblers"],"class":["868"],"trial_type":"image-multi-choice","trial_index":189,"time_elapsed":1286347,"internal_node_id":"0.0-1.0-188.0"},{"rt":4714,"responses":"{\"Q0\":\"Northern Waterthrush\"}","bird":["Northern Waterthrush"],"family":["Wood-Warblers"],"class":["862"],"trial_type":"image-multi-choice","trial_index":190,"time_elapsed":1292081,"internal_node_id":"0.0-1.0-189.0"},{"rt":4232,"responses":"{\"Q0\":\"Tennessee Warbler\"}","bird":["Tennessee Warbler"],"family":["Wood-Warblers"],"class":["866"],"trial_type":"image-multi-choice","trial_index":191,"time_elapsed":1297330,"internal_node_id":"0.0-1.0-190.0"},{"rt":4156,"responses":"{\"Q0\":\"Nashville Warbler\"}","bird":["Nashville Warbler"],"family":["Wood-Warblers"],"class":["868"],"trial_type":"image-multi-choice","trial_index":192,"time_elapsed":1302502,"internal_node_id":"0.0-1.0-191.0"},{"rt":5048,"responses":"{\"Q0\":\"Fox Sparrow\"}","bird":["Fox Sparrow"],"family":["New World Sparrows and Allies"],"class":["901"],"trial_type":"image-multi-choice","trial_index":193,"time_elapsed":1308567,"internal_node_id":"0.0-1.0-192.0"},{"rt":7887,"responses":"{\"Q0\":\"Townsend's Warbler\"}","bird":["Blackburnian Warbler"],"family":["Wood-Warblers"],"class":["874"],"trial_type":"image-multi-choice","trial_index":194,"time_elapsed":1317471,"internal_node_id":"0.0-1.0-193.0"},{"rt":4160,"responses":"{\"Q0\":\"Fox Sparrow\"}","bird":["Swamp Sparrow"],"family":["New World Sparrows and Allies"],"class":["904"],"trial_type":"image-multi-choice","trial_index":195,"time_elapsed":1322649,"internal_node_id":"0.0-1.0-194.0"},{"rt":4512,"responses":"{\"Q0\":\"Blackburnian Warbler\"}","bird":["Townsend's Warbler"],"family":["Wood-Warblers"],"class":["881"],"trial_type":"image-multi-choice","trial_index":196,"time_elapsed":1328180,"internal_node_id":"0.0-1.0-195.0"},{"rt":3553,"responses":"{\"Q0\":\"Orange-crowned Warbler\"}","bird":["Tennessee Warbler"],"family":["Wood-Warblers"],"class":["866"],"trial_type":"image-multi-choice","trial_index":197,"time_elapsed":1332750,"internal_node_id":"0.0-1.0-196.0"},{"rt":2705,"responses":"{\"Q0\":\"White-crowned Sparrow\"}","bird":["White-crowned Sparrow"],"family":["New World Sparrows and Allies"],"class":["766"],"trial_type":"image-multi-choice","trial_index":198,"time_elapsed":1336473,"internal_node_id":"0.0-1.0-197.0"},{"rt":3473,"responses":"{\"Q0\":\"Ovenbird\"}","bird":["Ovenbird"],"family":["Wood-Warblers"],"class":["860"],"trial_type":"image-multi-choice","trial_index":199,"time_elapsed":1340967,"internal_node_id":"0.0-1.0-198.0"},{"rt":5909,"responses":"{\"Q0\":\"Swamp Sparrow\"}","bird":["Vesper Sparrow"],"family":["New World Sparrows and Allies"],"class":["898"],"trial_type":"image-multi-choice","trial_index":200,"time_elapsed":1347895,"internal_node_id":"0.0-1.0-199.0"},{"rt":4473,"responses":"{\"Q0\":\"Townsend's Warbler\"}","bird":["Blackburnian Warbler"],"family":["Wood-Warblers"],"class":["874"],"trial_type":"image-multi-choice","trial_index":201,"time_elapsed":1353388,"internal_node_id":"0.0-1.0-200.0"},{"rt":7049,"responses":"{\"Q0\":\"Song Sparrow\"}","bird":["Chipping Sparrow"],"family":["New World Sparrows and Allies"],"class":["769"],"trial_type":"image-multi-choice","trial_index":202,"time_elapsed":1361456,"internal_node_id":"0.0-1.0-201.0"},{"rt":8414,"responses":"{\"Q0\":\"Vesper Sparrow\"}","bird":["Vesper Sparrow"],"family":["New World Sparrows and Allies"],"class":["898"],"trial_type":"image-multi-choice","trial_index":203,"time_elapsed":1370888,"internal_node_id":"0.0-1.0-202.0"},{"rt":2352,"responses":"{\"Q0\":\"Yellow Warbler\"}","bird":["Yellow Warbler"],"family":["Wood-Warblers"],"class":["875"],"trial_type":"image-multi-choice","trial_index":204,"time_elapsed":1374257,"internal_node_id":"0.0-1.0-203.0"},{"rt":3010,"responses":"{\"Q0\":\"Orange-crowned Warbler\"}","bird":["Orange-crowned Warbler"],"family":["Wood-Warblers"],"class":["867"],"trial_type":"image-multi-choice","trial_index":205,"time_elapsed":1378286,"internal_node_id":"0.0-1.0-204.0"},{"rt":2051,"responses":"{\"Q0\":\"White-throated Sparrow\"}","bird":["White-throated Sparrow"],"family":["New World Sparrows and Allies"],"class":["764"],"trial_type":"image-multi-choice","trial_index":206,"time_elapsed":1381352,"internal_node_id":"0.0-1.0-205.0"},{"rt":3452,"responses":"{\"Q0\":\"American Tree Sparrow\"}","bird":["American Tree Sparrow"],"family":["New World Sparrows and Allies"],"class":["894"],"trial_type":"image-multi-choice","trial_index":207,"time_elapsed":1385822,"internal_node_id":"0.0-1.0-206.0"},{"rt":4601,"responses":"{\"Q0\":\"Nashville Warbler\"}","bird":["Orange-crowned Warbler"],"family":["Wood-Warblers"],"class":["867"],"trial_type":"image-multi-choice","trial_index":208,"time_elapsed":1391440,"internal_node_id":"0.0-1.0-207.0"},{"rt":4153,"responses":"{\"Q0\":\"Black-and-white Warbler\"}","bird":["Black-and-white Warbler"],"family":["Wood-Warblers"],"class":["864"],"trial_type":"image-multi-choice","trial_index":209,"time_elapsed":1396610,"internal_node_id":"0.0-1.0-208.0"},{"rt":2891,"responses":"{\"Q0\":\"Lark Sparrow\"}","bird":["Lark Sparrow"],"family":["New World Sparrows and Allies"],"class":["899"],"trial_type":"image-multi-choice","trial_index":210,"time_elapsed":1400518,"internal_node_id":"0.0-1.0-209.0"},{"rt":6681,"responses":"{\"Q0\":\"White-throated Sparrow\"}","bird":["Chipping Sparrow"],"family":["New World Sparrows and Allies"],"class":["769"],"trial_type":"image-multi-choice","trial_index":211,"time_elapsed":1408216,"internal_node_id":"0.0-1.0-210.0"},{"rt":3873,"responses":"{\"Q0\":\"Orange-crowned Warbler\"}","bird":["Orange-crowned Warbler"],"family":["Wood-Warblers"],"class":["867"],"trial_type":"image-multi-choice","trial_index":212,"time_elapsed":1413110,"internal_node_id":"0.0-1.0-211.0"},{"rt":2839,"responses":"{\"Q0\":\"Yellow Warbler\"}","bird":["Yellow Warbler"],"family":["Wood-Warblers"],"class":["875"],"trial_type":"image-multi-choice","trial_index":213,"time_elapsed":1416972,"internal_node_id":"0.0-1.0-212.0"},{"rt":3274,"responses":"{\"Q0\":\"American Tree Sparrow\"}","bird":["American Tree Sparrow"],"family":["New World Sparrows and Allies"],"class":["894"],"trial_type":"image-multi-choice","trial_index":214,"time_elapsed":1421264,"internal_node_id":"0.0-1.0-213.0"},{"rt":7090,"responses":"{\"Q0\":\"Vesper Sparrow\"}","bird":["Vesper Sparrow"],"family":["New World Sparrows and Allies"],"class":["898"],"trial_type":"image-multi-choice","trial_index":215,"time_elapsed":1429372,"internal_node_id":"0.0-1.0-214.0"},{"rt":2766,"responses":"{\"Q0\":\"Ovenbird\"}","bird":["Ovenbird"],"family":["Wood-Warblers"],"class":["860"],"trial_type":"image-multi-choice","trial_index":216,"time_elapsed":1433156,"internal_node_id":"0.0-1.0-215.0"},{"rt":4523,"responses":"{\"Q0\":\"Lark Sparrow\"}","bird":["Lark Sparrow"],"family":["New World Sparrows and Allies"],"class":["899"],"trial_type":"image-multi-choice","trial_index":217,"time_elapsed":1438695,"internal_node_id":"0.0-1.0-216.0"},{"rt":5510,"responses":"{\"Q0\":\"Lincoln's Sparrow\"}","bird":["Lincoln's Sparrow"],"family":["New World Sparrows and Allies"],"class":["903"],"trial_type":"image-multi-choice","trial_index":218,"time_elapsed":1445224,"internal_node_id":"0.0-1.0-217.0"},{"rt":6853,"responses":"{\"Q0\":\"Chipping Sparrow\"}","bird":["Chipping Sparrow"],"family":["New World Sparrows and Allies"],"class":["769"],"trial_type":"image-multi-choice","trial_index":219,"time_elapsed":1453093,"internal_node_id":"0.0-1.0-218.0"},{"rt":7744,"responses":"{\"Q0\":\"Lincoln's Sparrow\"}","bird":["Lincoln's Sparrow"],"family":["New World Sparrows and Allies"],"class":["903"],"trial_type":"image-multi-choice","trial_index":220,"time_elapsed":1461854,"internal_node_id":"0.0-1.0-219.0"},{"rt":7906,"responses":"{\"Q0\":\"Townsend's Warbler\"}","bird":["Northern Waterthrush"],"family":["Wood-Warblers"],"class":["862"],"trial_type":"image-multi-choice","trial_index":221,"time_elapsed":1470779,"internal_node_id":"0.0-1.0-220.0"},{"rt":6451,"responses":"{\"Q0\":\"American Tree Sparrow\"}","bird":["Chipping Sparrow"],"family":["New World Sparrows and Allies"],"class":["769"],"trial_type":"image-multi-choice","trial_index":222,"time_elapsed":1478246,"internal_node_id":"0.0-1.0-221.0"},{"rt":3619,"responses":"{\"Q0\":\"Lincoln's Sparrow\"}","bird":["Lincoln's Sparrow"],"family":["New World Sparrows and Allies"],"class":["903"],"trial_type":"image-multi-choice","trial_index":223,"time_elapsed":1482885,"internal_node_id":"0.0-1.0-222.0"},{"rt":4793,"responses":"{\"Q0\":\"Blackburnian Warbler\"}","bird":["Blackburnian Warbler"],"family":["Wood-Warblers"],"class":["874"],"trial_type":"image-multi-choice","trial_index":224,"time_elapsed":1488695,"internal_node_id":"0.0-1.0-223.0"},{"rt":5563,"responses":"{\"Q0\":\"Vesper Sparrow\"}","bird":["Swamp Sparrow"],"family":["New World Sparrows and Allies"],"class":["904"],"trial_type":"image-multi-choice","trial_index":225,"time_elapsed":1495274,"internal_node_id":"0.0-1.0-224.0"},{"rt":3939,"responses":"{\"Q0\":\"American Tree Sparrow\"}","bird":["American Tree Sparrow"],"family":["New World Sparrows and Allies"],"class":["894"],"trial_type":"image-multi-choice","trial_index":226,"time_elapsed":1500231,"internal_node_id":"0.0-1.0-225.0"},{"rt":7057,"responses":"{\"Q0\":\"Fox Sparrow\"}","bird":["Fox Sparrow"],"family":["New World Sparrows and Allies"],"class":["901"],"trial_type":"image-multi-choice","trial_index":227,"time_elapsed":1508306,"internal_node_id":"0.0-1.0-226.0"},{"rt":5505,"responses":"{\"Q0\":\"Northern Waterthrush\"}","bird":["Northern Waterthrush"],"family":["Wood-Warblers"],"class":["862"],"trial_type":"image-multi-choice","trial_index":228,"time_elapsed":1514826,"internal_node_id":"0.0-1.0-227.0"},{"rt":4841,"responses":"{\"Q0\":\"Nashville Warbler\"}","bird":["Nashville Warbler"],"family":["Wood-Warblers"],"class":["868"],"trial_type":"image-multi-choice","trial_index":229,"time_elapsed":1520684,"internal_node_id":"0.0-1.0-228.0"},{"rt":3554,"responses":"{\"Q0\":\"Black-and-white Warbler\"}","bird":["Black-and-white Warbler"],"family":["Wood-Warblers"],"class":["864"],"trial_type":"image-multi-choice","trial_index":230,"time_elapsed":1525254,"internal_node_id":"0.0-1.0-229.0"},{"rt":2951,"responses":"{\"Q0\":\"Tennessee Warbler\"}","bird":["Tennessee Warbler"],"family":["Wood-Warblers"],"class":["866"],"trial_type":"image-multi-choice","trial_index":231,"time_elapsed":1529222,"internal_node_id":"0.0-1.0-230.0"},{"rt":3323,"responses":"{\"Q0\":\"Townsend's Warbler\"}","bird":["Townsend's Warbler"],"family":["Wood-Warblers"],"class":["881"],"trial_type":"image-multi-choice","trial_index":232,"time_elapsed":1533562,"internal_node_id":"0.0-1.0-231.0"},{"rt":5417,"responses":"{\"Q0\":\"Townsend's Warbler\"}","bird":["Magnolia Warbler"],"family":["Wood-Warblers"],"class":["758"],"trial_type":"image-multi-choice","trial_index":233,"time_elapsed":1539996,"internal_node_id":"0.0-1.0-232.0"},{"rt":2658,"responses":"{\"Q0\":\"Northern Waterthrush\"}","bird":["Northern Waterthrush"],"family":["Wood-Warblers"],"class":["862"],"trial_type":"image-multi-choice","trial_index":234,"time_elapsed":1543671,"internal_node_id":"0.0-1.0-233.0"},{"rt":3191,"responses":"{\"Q0\":\"Orange-crowned Warbler\"}","bird":["Orange-crowned Warbler"],"family":["Wood-Warblers"],"class":["867"],"trial_type":"image-multi-choice","trial_index":235,"time_elapsed":1547880,"internal_node_id":"0.0-1.0-234.0"},{"rt":1996,"responses":"{\"Q0\":\"White-throated Sparrow\"}","bird":["White-throated Sparrow"],"family":["New World Sparrows and Allies"],"class":["764"],"trial_type":"image-multi-choice","trial_index":236,"time_elapsed":1550892,"internal_node_id":"0.0-1.0-235.0"},{"rt":3020,"responses":"{\"Q0\":\"Yellow Warbler\"}","bird":["Yellow Warbler"],"family":["Wood-Warblers"],"class":["875"],"trial_type":"image-multi-choice","trial_index":237,"time_elapsed":1554930,"internal_node_id":"0.0-1.0-236.0"},{"rt":2566,"responses":"{\"Q0\":\"Fox Sparrow\"}","bird":["Fox Sparrow"],"family":["New World Sparrows and Allies"],"class":["901"],"trial_type":"image-multi-choice","trial_index":238,"time_elapsed":1558514,"internal_node_id":"0.0-1.0-237.0"},{"rt":10459,"responses":"{\"Q0\":\"Lincoln's Sparrow\"}","bird":["Swamp Sparrow"],"family":["New World Sparrows and Allies"],"class":["904"],"trial_type":"image-multi-choice","trial_index":239,"time_elapsed":1569989,"internal_node_id":"0.0-1.0-238.0"},{"rt":4994,"responses":"{\"Q0\":\"Fox Sparrow\"}","bird":["Fox Sparrow"],"family":["New World Sparrows and Allies"],"class":["901"],"trial_type":"image-multi-choice","trial_index":240,"time_elapsed":1579843,"internal_node_id":"0.0-1.0-239.0"},{"rt":3987,"responses":"{\"Q0\":\"Orange-crowned Warbler\"}","bird":["Orange-crowned Warbler"],"family":["Wood-Warblers"],"class":["867"],"trial_type":"image-multi-choice","trial_index":241,"time_elapsed":1584847,"internal_node_id":"0.0-1.0-240.0"},{"rt":2945,"responses":"{\"Q0\":\"White-crowned Sparrow\"}","bird":["White-crowned Sparrow"],"family":["New World Sparrows and Allies"],"class":["766"],"trial_type":"image-multi-choice","trial_index":242,"time_elapsed":1588809,"internal_node_id":"0.0-1.0-241.0"},{"rt":4826,"responses":"{\"Q0\":\"Lark Sparrow\"}","bird":["White-throated Sparrow"],"family":["New World Sparrows and Allies"],"class":["764"],"trial_type":"image-multi-choice","trial_index":243,"time_elapsed":1594650,"internal_node_id":"0.0-1.0-242.0"},{"rt":19696,"responses":"{\"Q0\":\"Chipping Sparrow\"}","bird":["Song Sparrow"],"family":["New World Sparrows and Allies"],"class":["902"],"trial_type":"image-multi-choice","trial_index":244,"time_elapsed":1615362,"internal_node_id":"0.0-1.0-243.0"},{"rt":2685,"responses":"{\"Q0\":\"Lark Sparrow\"}","bird":["Lark Sparrow"],"family":["New World Sparrows and Allies"],"class":["899"],"trial_type":"image-multi-choice","trial_index":245,"time_elapsed":1619063,"internal_node_id":"0.0-1.0-244.0"},{"rt":4367,"responses":"{\"Q0\":\"Vesper Sparrow\"}","bird":["Vesper Sparrow"],"family":["New World Sparrows and Allies"],"class":["898"],"trial_type":"image-multi-choice","trial_index":246,"time_elapsed":1624449,"internal_node_id":"0.0-1.0-245.0"},{"rt":2835,"responses":"{\"Q0\":\"Lark Sparrow\"}","bird":["Lark Sparrow"],"family":["New World Sparrows and Allies"],"class":["899"],"trial_type":"image-multi-choice","trial_index":247,"time_elapsed":1628302,"internal_node_id":"0.0-1.0-246.0"},{"rt":3283,"responses":"{\"Q0\":\"American Tree Sparrow\"}","bird":["American Tree Sparrow"],"family":["New World Sparrows and Allies"],"class":["894"],"trial_type":"image-multi-choice","trial_index":248,"time_elapsed":1632602,"internal_node_id":"0.0-1.0-247.0"},{"rt":3564,"responses":"{\"Q0\":\"Black-and-white Warbler\"}","bird":["Black-and-white Warbler"],"family":["Wood-Warblers"],"class":["864"],"trial_type":"image-multi-choice","trial_index":249,"time_elapsed":1637180,"internal_node_id":"0.0-1.0-248.0"},{"rt":5417,"responses":"{\"Q0\":\"Lark Sparrow\"}","bird":["Lark Sparrow"],"family":["New World Sparrows and Allies"],"class":["899"],"trial_type":"image-multi-choice","trial_index":250,"time_elapsed":1643614,"internal_node_id":"0.0-1.0-249.0"},{"rt":4378,"responses":"{\"Q0\":\"Orange-crowned Warbler\"}","bird":["Orange-crowned Warbler"],"family":["Wood-Warblers"],"class":["867"],"trial_type":"image-multi-choice","trial_index":251,"time_elapsed":1649010,"internal_node_id":"0.0-1.0-250.0"},{"rt":4748,"responses":"{\"Q0\":\"Blackburnian Warbler\"}","bird":["Blackburnian Warbler"],"family":["Wood-Warblers"],"class":["874"],"trial_type":"image-multi-choice","trial_index":252,"time_elapsed":1654776,"internal_node_id":"0.0-1.0-251.0"},{"rt":4663,"responses":"{\"Q0\":\"Swamp Sparrow\"}","bird":["Vesper Sparrow"],"family":["New World Sparrows and Allies"],"class":["898"],"trial_type":"image-multi-choice","trial_index":253,"time_elapsed":1660454,"internal_node_id":"0.0-1.0-252.0"},{"rt":4505,"responses":"{\"Q0\":\"Blackburnian Warbler\"}","bird":["Townsend's Warbler"],"family":["Wood-Warblers"],"class":["881"],"trial_type":"image-multi-choice","trial_index":254,"time_elapsed":1665978,"internal_node_id":"0.0-1.0-253.0"},{"rt":4411,"responses":"{\"Q0\":\"Vesper Sparrow\"}","bird":["Swamp Sparrow"],"family":["New World Sparrows and Allies"],"class":["904"],"trial_type":"image-multi-choice","trial_index":255,"time_elapsed":1671404,"internal_node_id":"0.0-1.0-254.0"},{"rt":3052,"responses":"{\"Q0\":\"Song Sparrow\"}","bird":["Song Sparrow"],"family":["New World Sparrows and Allies"],"class":["902"],"trial_type":"image-multi-choice","trial_index":256,"time_elapsed":1675473,"internal_node_id":"0.0-1.0-255.0"},{"rt":2734,"responses":"{\"Q0\":\"White-throated Sparrow\"}","bird":["Swamp Sparrow"],"family":["New World Sparrows and Allies"],"class":["904"],"trial_type":"image-multi-choice","trial_index":257,"time_elapsed":1679224,"internal_node_id":"0.0-1.0-256.0"},{"rt":4198,"responses":"{\"Q0\":\"Ovenbird\"}","bird":["Ovenbird"],"family":["Wood-Warblers"],"class":["860"],"trial_type":"image-multi-choice","trial_index":258,"time_elapsed":1684441,"internal_node_id":"0.0-1.0-257.0"},{"rt":3677,"responses":"{\"Q0\":\"Black-and-white Warbler\"}","bird":["Black-and-white Warbler"],"family":["Wood-Warblers"],"class":["864"],"trial_type":"image-multi-choice","trial_index":259,"time_elapsed":1689135,"internal_node_id":"0.0-1.0-258.0"},{"rt":4059,"responses":"{\"Q0\":\"American Tree Sparrow\"}","bird":["American Tree Sparrow"],"family":["New World Sparrows and Allies"],"class":["894"],"trial_type":"image-multi-choice","trial_index":260,"time_elapsed":1694212,"internal_node_id":"0.0-1.0-259.0"},{"rt":2434,"responses":"{\"Q0\":\"Yellow Warbler\"}","bird":["Yellow Warbler"],"family":["Wood-Warblers"],"class":["875"],"trial_type":"image-multi-choice","trial_index":261,"time_elapsed":1697664,"internal_node_id":"0.0-1.0-260.0"},{"rt":11434,"responses":"{\"Q0\":\"Orange-crowned Warbler\"}","bird":["Vesper Sparrow"],"family":["New World Sparrows and Allies"],"class":["898"],"trial_type":"image-multi-choice","trial_index":262,"time_elapsed":1710134,"internal_node_id":"0.0-1.0-261.0"},{"rt":4968,"responses":"{\"Q0\":\"Chipping Sparrow\"}","bird":["Chipping Sparrow"],"family":["New World Sparrows and Allies"],"class":["769"],"trial_type":"image-multi-choice","trial_index":263,"time_elapsed":1716117,"internal_node_id":"0.0-1.0-262.0"},{"rt":4000,"responses":"{\"Q0\":\"Northern Waterthrush\"}","bird":["Northern Waterthrush"],"family":["Wood-Warblers"],"class":["862"],"trial_type":"image-multi-choice","trial_index":264,"time_elapsed":1721133,"internal_node_id":"0.0-1.0-263.0"},{"rt":7718,"responses":"{\"Q0\":\"Swamp Sparrow\"}","bird":["Song Sparrow"],"family":["New World Sparrows and Allies"],"class":["902"],"trial_type":"image-multi-choice","trial_index":265,"time_elapsed":1729871,"internal_node_id":"0.0-1.0-264.0"},{"rt":4507,"responses":"{\"Q0\":\"Nashville Warbler\"}","bird":["Nashville Warbler"],"family":["Wood-Warblers"],"class":["868"],"trial_type":"image-multi-choice","trial_index":266,"time_elapsed":1735395,"internal_node_id":"0.0-1.0-265.0"},{"rt":2090,"responses":"{\"Q0\":\"White-throated Sparrow\"}","bird":["White-throated Sparrow"],"family":["New World Sparrows and Allies"],"class":["764"],"trial_type":"image-multi-choice","trial_index":267,"time_elapsed":1738501,"internal_node_id":"0.0-1.0-266.0"},{"rt":4385,"responses":"{\"Q0\":\"White-crowned Sparrow\"}","bird":["White-crowned Sparrow"],"family":["New World Sparrows and Allies"],"class":["766"],"trial_type":"image-multi-choice","trial_index":268,"time_elapsed":1743905,"internal_node_id":"0.0-1.0-267.0"},{"rt":3111,"responses":"{\"Q0\":\"American Tree Sparrow\"}","bird":["American Tree Sparrow"],"family":["New World Sparrows and Allies"],"class":["894"],"trial_type":"image-multi-choice","trial_index":269,"time_elapsed":1748033,"internal_node_id":"0.0-1.0-268.0"},{"rt":6863,"responses":"{\"Q0\":\"White-throated Sparrow\"}","bird":["White-throated Sparrow"],"family":["New World Sparrows and Allies"],"class":["764"],"trial_type":"image-multi-choice","trial_index":270,"time_elapsed":1755917,"internal_node_id":"0.0-1.0-269.0"},{"rt":2167,"responses":"{\"Q0\":\"White-crowned Sparrow\"}","bird":["White-crowned Sparrow"],"family":["New World Sparrows and Allies"],"class":["766"],"trial_type":"image-multi-choice","trial_index":271,"time_elapsed":1759100,"internal_node_id":"0.0-1.0-270.0"},{"rt":1965,"responses":"{\"Q0\":\"Yellow Warbler\"}","bird":["Yellow Warbler"],"family":["Wood-Warblers"],"class":["875"],"trial_type":"image-multi-choice","trial_index":272,"time_elapsed":1762082,"internal_node_id":"0.0-1.0-271.0"},{"rt":7308,"responses":"{\"Q0\":\"Lark Sparrow\"}","bird":["Chipping Sparrow"],"family":["New World Sparrows and Allies"],"class":["769"],"trial_type":"image-multi-choice","trial_index":273,"time_elapsed":1770405,"internal_node_id":"0.0-1.0-272.0"},{"rt":2930,"responses":"{\"Q0\":\"Ovenbird\"}","bird":["Ovenbird"],"family":["Wood-Warblers"],"class":["860"],"trial_type":"image-multi-choice","trial_index":274,"time_elapsed":1774350,"internal_node_id":"0.0-1.0-273.0"},{"rt":4149,"responses":"{\"Q0\":\"Northern Waterthrush\"}","bird":["Northern Waterthrush"],"family":["Wood-Warblers"],"class":["862"],"trial_type":"image-multi-choice","trial_index":275,"time_elapsed":1779522,"internal_node_id":"0.0-1.0-274.0"},{"rt":11658,"responses":"{\"Q0\":\"Lark Sparrow\"}","bird":["Ovenbird"],"family":["Wood-Warblers"],"class":["860"],"trial_type":"image-multi-choice","trial_index":276,"time_elapsed":1792197,"internal_node_id":"0.0-1.0-275.0"},{"rt":3298,"responses":"{\"Q0\":\"Townsend's Warbler\"}","bird":["Black-and-white Warbler"],"family":["Wood-Warblers"],"class":["864"],"trial_type":"image-multi-choice","trial_index":277,"time_elapsed":1796511,"internal_node_id":"0.0-1.0-276.0"},{"rt":3252,"responses":"{\"Q0\":\"Chipping Sparrow\"}","bird":["Chipping Sparrow"],"family":["New World Sparrows and Allies"],"class":["769"],"trial_type":"image-multi-choice","trial_index":278,"time_elapsed":1800783,"internal_node_id":"0.0-1.0-277.0"},{"rt":2678,"responses":"{\"Q0\":\"Fox Sparrow\"}","bird":["Fox Sparrow"],"family":["New World Sparrows and Allies"],"class":["901"],"trial_type":"image-multi-choice","trial_index":279,"time_elapsed":1804479,"internal_node_id":"0.0-1.0-278.0"},{"rt":6059,"responses":"{\"Q0\":\"Magnolia Warbler\"}","bird":["Magnolia Warbler"],"family":["Wood-Warblers"],"class":["758"],"trial_type":"image-multi-choice","trial_index":280,"time_elapsed":1811554,"internal_node_id":"0.0-1.0-279.0"},{"rt":2797,"responses":"{\"Q0\":\"White-crowned Sparrow\"}","bird":["White-crowned Sparrow"],"family":["New World Sparrows and Allies"],"class":["766"],"trial_type":"image-multi-choice","trial_index":281,"time_elapsed":1815367,"internal_node_id":"0.0-1.0-280.0"},{"rt":2035,"responses":"{\"Q0\":\"White-throated Sparrow\"}","bird":["White-throated Sparrow"],"family":["New World Sparrows and Allies"],"class":["764"],"trial_type":"image-multi-choice","trial_index":282,"time_elapsed":1818420,"internal_node_id":"0.0-1.0-281.0"},{"rt":15166,"responses":"{\"Q0\":\"Swamp Sparrow\"}","bird":["Swamp Sparrow"],"family":["New World Sparrows and Allies"],"class":["904"],"trial_type":"image-multi-choice","trial_index":283,"time_elapsed":1834603,"internal_node_id":"0.0-1.0-282.0"},{"rt":4416,"responses":"{\"Q0\":\"Townsend's Warbler\"}","bird":["Magnolia Warbler"],"family":["Wood-Warblers"],"class":["758"],"trial_type":"image-multi-choice","trial_index":284,"time_elapsed":1840034,"internal_node_id":"0.0-1.0-283.0"},{"rt":4449,"responses":"{\"Q0\":\"Orange-crowned Warbler\"}","bird":["Orange-crowned Warbler"],"family":["Wood-Warblers"],"class":["867"],"trial_type":"image-multi-choice","trial_index":285,"time_elapsed":1845500,"internal_node_id":"0.0-1.0-284.0"},{"rt":7713,"responses":"{\"Q0\":\"Magnolia Warbler\"}","bird":["Magnolia Warbler"],"family":["Wood-Warblers"],"class":["758"],"trial_type":"image-multi-choice","trial_index":286,"time_elapsed":1854230,"internal_node_id":"0.0-1.0-285.0"},{"rt":3283,"responses":"{\"Q0\":\"Song Sparrow\"}","bird":["Vesper Sparrow"],"family":["New World Sparrows and Allies"],"class":["898"],"trial_type":"image-multi-choice","trial_index":287,"time_elapsed":1858529,"internal_node_id":"0.0-1.0-286.0"},{"rt":3105,"responses":"{\"Q0\":\"Northern Waterthrush\"}","bird":["Northern Waterthrush"],"family":["Wood-Warblers"],"class":["862"],"trial_type":"image-multi-choice","trial_index":288,"time_elapsed":1862651,"internal_node_id":"0.0-1.0-287.0"},{"rt":3902,"responses":"{\"Q0\":\"Blackburnian Warbler\"}","bird":["Blackburnian Warbler"],"family":["Wood-Warblers"],"class":["874"],"trial_type":"image-multi-choice","trial_index":289,"time_elapsed":1867568,"internal_node_id":"0.0-1.0-288.0"},{"rt":3530,"responses":"{\"Q0\":\"Tennessee Warbler\"}","bird":["Tennessee Warbler"],"family":["Wood-Warblers"],"class":["866"],"trial_type":"image-multi-choice","trial_index":290,"time_elapsed":1872113,"internal_node_id":"0.0-1.0-289.0"},{"rt":2844,"responses":"{\"Q0\":\"Lark Sparrow\"}","bird":["Lark Sparrow"],"family":["New World Sparrows and Allies"],"class":["899"],"trial_type":"image-multi-choice","trial_index":291,"time_elapsed":1875973,"internal_node_id":"0.0-1.0-290.0"},{"rt":7823,"responses":"{\"Q0\":\"Black-and-white Warbler\"}","bird":["Black-and-white Warbler"],"family":["Wood-Warblers"],"class":["864"],"trial_type":"image-multi-choice","trial_index":292,"time_elapsed":1884812,"internal_node_id":"0.0-1.0-291.0"},{"rt":4832,"responses":"{\"Q0\":\"Vesper Sparrow\"}","bird":["Lincoln's Sparrow"],"family":["New World Sparrows and Allies"],"class":["903"],"trial_type":"image-multi-choice","trial_index":293,"time_elapsed":1890659,"internal_node_id":"0.0-1.0-292.0"},{"rt":8471,"responses":"{\"Q0\":\"Tennessee Warbler\"}","bird":["Tennessee Warbler"],"family":["Wood-Warblers"],"class":["866"],"trial_type":"image-multi-choice","trial_index":294,"time_elapsed":1900146,"internal_node_id":"0.0-1.0-293.0"},{"rt":5633,"responses":"{\"Q0\":\"Ovenbird\"}","bird":["Ovenbird"],"family":["Wood-Warblers"],"class":["860"],"trial_type":"image-multi-choice","trial_index":295,"time_elapsed":1906796,"internal_node_id":"0.0-1.0-294.0"},{"rt":10065,"responses":"{\"Q0\":\"Lincoln's Sparrow\"}","bird":["Vesper Sparrow"],"family":["New World Sparrows and Allies"],"class":["898"],"trial_type":"image-multi-choice","trial_index":296,"time_elapsed":1917876,"internal_node_id":"0.0-1.0-295.0"},{"rt":2734,"responses":"{\"Q0\":\"Northern Waterthrush\"}","bird":["Northern Waterthrush"],"family":["Wood-Warblers"],"class":["862"],"trial_type":"image-multi-choice","trial_index":297,"time_elapsed":1921627,"internal_node_id":"0.0-1.0-296.0"},{"rt":4664,"responses":"{\"Q0\":\"Swamp Sparrow\"}","bird":["Chipping Sparrow"],"family":["New World Sparrows and Allies"],"class":["769"],"trial_type":"image-multi-choice","trial_index":298,"time_elapsed":1927308,"internal_node_id":"0.0-1.0-297.0"},{"rt":6774,"responses":"{\"Q0\":\"Lark Sparrow\"}","bird":["Lark Sparrow"],"family":["New World Sparrows and Allies"],"class":["899"],"trial_type":"image-multi-choice","trial_index":299,"time_elapsed":1935099,"internal_node_id":"0.0-1.0-298.0"},{"rt":1779,"responses":"{\"Q0\":\"Yellow Warbler\"}","bird":["Yellow Warbler"],"family":["Wood-Warblers"],"class":["875"],"trial_type":"image-multi-choice","trial_index":300,"time_elapsed":1942978,"internal_node_id":"0.0-1.0-299.0"},{"view_history":"[{\"page_index\":0,\"viewing_time\":1418}]","rt":1419,"trial_type":"instructions","trial_index":301,"time_elapsed":1945399,"internal_node_id":"0.0-2.0"}]