"view_history","rt","trial_type","trial_index","time_elapsed","internal_node_id","responses","bird","family","class"
"[{""page_index"":0,""viewing_time"":1423}]","1424","instructions","0","1426","0.0-0.0","","","",""
"","34602","image-multi-choice","1","37056","0.0-1.0-0.0","{""Q0"":""Northern Waterthrush""}","Townsend's Warbler","Wood-Warblers","881"
"","4559","image-multi-choice","2","42635","0.0-1.0-1.0","{""Q0"":""Lark Sparrow""}","Lark Sparrow","New World Sparrows and Allies","899"
"","4250","image-multi-choice","3","47908","0.0-1.0-2.0","{""Q0"":""White-crowned Sparrow""}","White-crowned Sparrow","New World Sparrows and Allies","766"
"","15572","image-multi-choice","4","64508","0.0-1.0-3.0","{""Q0"":""Fox Sparrow""}","Lark Sparrow","New World Sparrows and Allies","899"
"","4196","image-multi-choice","5","69722","0.0-1.0-4.0","{""Q0"":""White-throated Sparrow""}","White-throated Sparrow","New World Sparrows and Allies","764"
"","5056","image-multi-choice","6","75797","0.0-1.0-5.0","{""Q0"":""White-crowned Sparrow""}","White-crowned Sparrow","New World Sparrows and Allies","766"
"","12982","image-multi-choice","7","89798","0.0-1.0-6.0","{""Q0"":""Orange-crowned Warbler""}","Tennessee Warbler","Wood-Warblers","866"
"","4893","image-multi-choice","8","95712","0.0-1.0-7.0","{""Q0"":""White-crowned Sparrow""}","White-crowned Sparrow","New World Sparrows and Allies","766"
"","6098","image-multi-choice","9","102829","0.0-1.0-8.0","{""Q0"":""Orange-crowned Warbler""}","Orange-crowned Warbler","Wood-Warblers","867"
"","4289","image-multi-choice","10","108141","0.0-1.0-9.0","{""Q0"":""Lincoln's Sparrow""}","Swamp Sparrow","New World Sparrows and Allies","904"
"","5781","image-multi-choice","11","114942","0.0-1.0-10.0","{""Q0"":""Tennessee Warbler""}","Orange-crowned Warbler","Wood-Warblers","867"
"","8470","image-multi-choice","12","124431","0.0-1.0-11.0","{""Q0"":""American Tree Sparrow""}","White-crowned Sparrow","New World Sparrows and Allies","766"
"","3703","image-multi-choice","13","129152","0.0-1.0-12.0","{""Q0"":""Lark Sparrow""}","Townsend's Warbler","Wood-Warblers","881"
"","5688","image-multi-choice","14","135860","0.0-1.0-13.0","{""Q0"":""Lincoln's Sparrow""}","Lincoln's Sparrow","New World Sparrows and Allies","903"
"","3122","image-multi-choice","15","139999","0.0-1.0-14.0","{""Q0"":""Ovenbird""}","Ovenbird","Wood-Warblers","860"
"","3733","image-multi-choice","16","144749","0.0-1.0-15.0","{""Q0"":""Tennessee Warbler""}","Tennessee Warbler","Wood-Warblers","866"
"","4117","image-multi-choice","17","149884","0.0-1.0-16.0","{""Q0"":""Swamp Sparrow""}","Vesper Sparrow","New World Sparrows and Allies","898"
"","8719","image-multi-choice","18","159621","0.0-1.0-17.0","{""Q0"":""Nashville Warbler""}","Tennessee Warbler","Wood-Warblers","866"
"","4697","image-multi-choice","19","165342","0.0-1.0-18.0","{""Q0"":""Vesper Sparrow""}","Vesper Sparrow","New World Sparrows and Allies","898"
"","4657","image-multi-choice","20","171016","0.0-1.0-19.0","{""Q0"":""Song Sparrow""}","Song Sparrow","New World Sparrows and Allies","902"
"","5283","image-multi-choice","21","177322","0.0-1.0-20.0","{""Q0"":""Magnolia Warbler""}","Magnolia Warbler","Wood-Warblers","758"
"","4317","image-multi-choice","22","182658","0.0-1.0-21.0","{""Q0"":""Orange-crowned Warbler""}","Orange-crowned Warbler","Wood-Warblers","867"
"","4332","image-multi-choice","23","188009","0.0-1.0-22.0","{""Q0"":""Lark Sparrow""}","Townsend's Warbler","Wood-Warblers","881"
"","5606","image-multi-choice","24","194632","0.0-1.0-23.0","{""Q0"":""Ovenbird""}","Ovenbird","Wood-Warblers","860"
"","13779","image-multi-choice","25","209428","0.0-1.0-24.0","{""Q0"":""Lincoln's Sparrow""}","Lincoln's Sparrow","New World Sparrows and Allies","903"
"","3095","image-multi-choice","26","213544","0.0-1.0-25.0","{""Q0"":""White-throated Sparrow""}","White-throated Sparrow","New World Sparrows and Allies","764"
"","3207","image-multi-choice","27","217768","0.0-1.0-26.0","{""Q0"":""Ovenbird""}","Ovenbird","Wood-Warblers","860"
"","3654","image-multi-choice","28","222441","0.0-1.0-27.0","{""Q0"":""Chipping Sparrow""}","Chipping Sparrow","New World Sparrows and Allies","769"
"","5618","image-multi-choice","29","229078","0.0-1.0-28.0","{""Q0"":""Fox Sparrow""}","Fox Sparrow","New World Sparrows and Allies","901"
"","4187","image-multi-choice","30","234283","0.0-1.0-29.0","{""Q0"":""Magnolia Warbler""}","Magnolia Warbler","Wood-Warblers","758"
"","4984","image-multi-choice","31","240281","0.0-1.0-30.0","{""Q0"":""Northern Waterthrush""}","Northern Waterthrush","Wood-Warblers","862"
"","4728","image-multi-choice","32","246024","0.0-1.0-31.0","{""Q0"":""Tennessee Warbler""}","Tennessee Warbler","Wood-Warblers","866"
"","3375","image-multi-choice","33","250421","0.0-1.0-32.0","{""Q0"":""Magnolia Warbler""}","Magnolia Warbler","Wood-Warblers","758"
"","4141","image-multi-choice","34","255578","0.0-1.0-33.0","{""Q0"":""Song Sparrow""}","Song Sparrow","New World Sparrows and Allies","902"
"","4172","image-multi-choice","35","260768","0.0-1.0-34.0","{""Q0"":""Lark Sparrow""}","Lark Sparrow","New World Sparrows and Allies","899"
"","8682","image-multi-choice","36","270466","0.0-1.0-35.0","{""Q0"":""Orange-crowned Warbler""}","Nashville Warbler","Wood-Warblers","868"
"","5521","image-multi-choice","37","277004","0.0-1.0-36.0","{""Q0"":""Northern Waterthrush""}","Northern Waterthrush","Wood-Warblers","862"
"","4136","image-multi-choice","38","282162","0.0-1.0-37.0","{""Q0"":""Chipping Sparrow""}","Chipping Sparrow","New World Sparrows and Allies","769"
"","2811","image-multi-choice","39","285991","0.0-1.0-38.0","{""Q0"":""Yellow Warbler""}","Yellow Warbler","Wood-Warblers","875"
"","6159","image-multi-choice","40","293169","0.0-1.0-39.0","{""Q0"":""Ovenbird""}","Ovenbird","Wood-Warblers","860"
"","5295","image-multi-choice","41","299480","0.0-1.0-40.0","{""Q0"":""Black-and-white Warbler""}","Black-and-white Warbler","Wood-Warblers","864"
"","13162","image-multi-choice","42","313658","0.0-1.0-41.0","{""Q0"":""Lincoln's Sparrow""}","Tennessee Warbler","Wood-Warblers","866"
"","8732","image-multi-choice","43","323408","0.0-1.0-42.0","{""Q0"":""Song Sparrow""}","Song Sparrow","New World Sparrows and Allies","902"
"","5288","image-multi-choice","44","329713","0.0-1.0-43.0","{""Q0"":""Black-and-white Warbler""}","Blackburnian Warbler","Wood-Warblers","874"
"","16511","image-multi-choice","45","347243","0.0-1.0-44.0","{""Q0"":""Northern Waterthrush""}","Black-and-white Warbler","Wood-Warblers","864"
"","3579","image-multi-choice","46","351836","0.0-1.0-45.0","{""Q0"":""Magnolia Warbler""}","Magnolia Warbler","Wood-Warblers","758"
"","3262","image-multi-choice","47","356114","0.0-1.0-46.0","{""Q0"":""Ovenbird""}","Ovenbird","Wood-Warblers","860"
"","5015","image-multi-choice","48","362144","0.0-1.0-47.0","{""Q0"":""Swamp Sparrow""}","Vesper Sparrow","New World Sparrows and Allies","898"
"","7888","image-multi-choice","49","371047","0.0-1.0-48.0","{""Q0"":""Lark Sparrow""}","Lark Sparrow","New World Sparrows and Allies","899"
"","11157","image-multi-choice","50","383227","0.0-1.0-49.0","{""Q0"":""Lark Sparrow""}","Black-and-white Warbler","Wood-Warblers","864"
"","12302","image-multi-choice","51","396547","0.0-1.0-50.0","{""Q0"":""Blackburnian Warbler""}","Townsend's Warbler","Wood-Warblers","881"
"","6422","image-multi-choice","52","403987","0.0-1.0-51.0","{""Q0"":""Nashville Warbler""}","Nashville Warbler","Wood-Warblers","868"
"","7031","image-multi-choice","53","412035","0.0-1.0-52.0","{""Q0"":""Chipping Sparrow""}","Chipping Sparrow","New World Sparrows and Allies","769"
"","19010","image-multi-choice","54","432062","0.0-1.0-53.0","{""Q0"":""Lincoln's Sparrow""}","Swamp Sparrow","New World Sparrows and Allies","904"
"","3747","image-multi-choice","55","436826","0.0-1.0-54.0","{""Q0"":""White-crowned Sparrow""}","White-crowned Sparrow","New World Sparrows and Allies","766"
"","4076","image-multi-choice","56","441920","0.0-1.0-55.0","{""Q0"":""Black-and-white Warbler""}","Black-and-white Warbler","Wood-Warblers","864"
"","10376","image-multi-choice","57","453313","0.0-1.0-56.0","{""Q0"":""Nashville Warbler""}","Tennessee Warbler","Wood-Warblers","866"
"","8230","image-multi-choice","58","462557","0.0-1.0-57.0","{""Q0"":""Blackburnian Warbler""}","Townsend's Warbler","Wood-Warblers","881"
"","5959","image-multi-choice","59","469536","0.0-1.0-58.0","{""Q0"":""Nashville Warbler""}","Nashville Warbler","Wood-Warblers","868"
"","5225","image-multi-choice","60","482552","0.0-1.0-59.0","{""Q0"":""Lincoln's Sparrow""}","Lincoln's Sparrow","New World Sparrows and Allies","903"
"","8336","image-multi-choice","61","491905","0.0-1.0-60.0","{""Q0"":""Swamp Sparrow""}","Song Sparrow","New World Sparrows and Allies","902"
"","2890","image-multi-choice","62","495814","0.0-1.0-61.0","{""Q0"":""Yellow Warbler""}","Yellow Warbler","Wood-Warblers","875"
"","4619","image-multi-choice","63","501451","0.0-1.0-62.0","{""Q0"":""White-throated Sparrow""}","White-throated Sparrow","New World Sparrows and Allies","764"
"","5130","image-multi-choice","64","507597","0.0-1.0-63.0","{""Q0"":""Tennessee Warbler""}","Tennessee Warbler","Wood-Warblers","866"
"","7989","image-multi-choice","65","516609","0.0-1.0-64.0","{""Q0"":""Lincoln's Sparrow""}","Lincoln's Sparrow","New World Sparrows and Allies","903"
"","4829","image-multi-choice","66","522458","0.0-1.0-65.0","{""Q0"":""Black-and-white Warbler""}","Blackburnian Warbler","Wood-Warblers","874"
"","4509","image-multi-choice","67","527986","0.0-1.0-66.0","{""Q0"":""Northern Waterthrush""}","Northern Waterthrush","Wood-Warblers","862"
"","2171","image-multi-choice","68","531175","0.0-1.0-67.0","{""Q0"":""Yellow Warbler""}","Yellow Warbler","Wood-Warblers","875"
"","4891","image-multi-choice","69","537083","0.0-1.0-68.0","{""Q0"":""Lincoln's Sparrow""}","Lincoln's Sparrow","New World Sparrows and Allies","903"
"","6298","image-multi-choice","70","544398","0.0-1.0-69.0","{""Q0"":""Vesper Sparrow""}","American Tree Sparrow","New World Sparrows and Allies","894"
"","3895","image-multi-choice","71","549308","0.0-1.0-70.0","{""Q0"":""Orange-crowned Warbler""}","Orange-crowned Warbler","Wood-Warblers","867"
"","6395","image-multi-choice","72","556723","0.0-1.0-71.0","{""Q0"":""Lincoln's Sparrow""}","Lincoln's Sparrow","New World Sparrows and Allies","903"
"","6402","image-multi-choice","73","564147","0.0-1.0-72.0","{""Q0"":""Magnolia Warbler""}","Magnolia Warbler","Wood-Warblers","758"
"","7200","image-multi-choice","74","572365","0.0-1.0-73.0","{""Q0"":""Vesper Sparrow""}","Lincoln's Sparrow","New World Sparrows and Allies","903"
"","6313","image-multi-choice","75","579696","0.0-1.0-74.0","{""Q0"":""Orange-crowned Warbler""}","Yellow Warbler","Wood-Warblers","875"
"","3208","image-multi-choice","76","583920","0.0-1.0-75.0","{""Q0"":""White-crowned Sparrow""}","White-crowned Sparrow","New World Sparrows and Allies","766"
"","7284","image-multi-choice","77","592255","0.0-1.0-76.0","{""Q0"":""Nashville Warbler""}","Nashville Warbler","Wood-Warblers","868"
"","13207","image-multi-choice","78","606482","0.0-1.0-77.0","{""Q0"":""American Tree Sparrow""}","American Tree Sparrow","New World Sparrows and Allies","894"
"","6266","image-multi-choice","79","613765","0.0-1.0-78.0","{""Q0"":""Black-and-white Warbler""}","Townsend's Warbler","Wood-Warblers","881"
"","9553","image-multi-choice","80","624333","0.0-1.0-79.0","{""Q0"":""Swamp Sparrow""}","Chipping Sparrow","New World Sparrows and Allies","769"
"","3478","image-multi-choice","81","628827","0.0-1.0-80.0","{""Q0"":""White-throated Sparrow""}","White-throated Sparrow","New World Sparrows and Allies","764"
"","2973","image-multi-choice","82","632818","0.0-1.0-81.0","{""Q0"":""Ovenbird""}","Ovenbird","Wood-Warblers","860"
"","2676","image-multi-choice","83","636510","0.0-1.0-82.0","{""Q0"":""White-crowned Sparrow""}","White-crowned Sparrow","New World Sparrows and Allies","766"
"","5002","image-multi-choice","84","642533","0.0-1.0-83.0","{""Q0"":""Magnolia Warbler""}","Magnolia Warbler","Wood-Warblers","758"
"","6789","image-multi-choice","85","650340","0.0-1.0-84.0","{""Q0"":""Yellow Warbler""}","Yellow Warbler","Wood-Warblers","875"
"","3475","image-multi-choice","86","654834","0.0-1.0-85.0","{""Q0"":""Lark Sparrow""}","Lark Sparrow","New World Sparrows and Allies","899"
"","5178","image-multi-choice","87","661030","0.0-1.0-86.0","{""Q0"":""Lincoln's Sparrow""}","Lincoln's Sparrow","New World Sparrows and Allies","903"
"","5914","image-multi-choice","88","667960","0.0-1.0-87.0","{""Q0"":""Black-and-white Warbler""}","Black-and-white Warbler","Wood-Warblers","864"
"","2496","image-multi-choice","89","671474","0.0-1.0-88.0","{""Q0"":""White-crowned Sparrow""}","White-crowned Sparrow","New World Sparrows and Allies","766"
"","13396","image-multi-choice","90","685889","0.0-1.0-89.0","{""Q0"":""Townsend's Warbler""}","Townsend's Warbler","Wood-Warblers","881"
"","2335","image-multi-choice","91","689242","0.0-1.0-90.0","{""Q0"":""White-throated Sparrow""}","White-throated Sparrow","New World Sparrows and Allies","764"
"","3067","image-multi-choice","92","693327","0.0-1.0-91.0","{""Q0"":""Magnolia Warbler""}","Magnolia Warbler","Wood-Warblers","758"
"","4599","image-multi-choice","93","698947","0.0-1.0-92.0","{""Q0"":""Vesper Sparrow""}","Lincoln's Sparrow","New World Sparrows and Allies","903"
"","6437","image-multi-choice","94","706400","0.0-1.0-93.0","{""Q0"":""Townsend's Warbler""}","Blackburnian Warbler","Wood-Warblers","874"
"","7747","image-multi-choice","95","715165","0.0-1.0-94.0","{""Q0"":""Vesper Sparrow""}","Vesper Sparrow","New World Sparrows and Allies","898"
"","3890","image-multi-choice","96","720072","0.0-1.0-95.0","{""Q0"":""Lark Sparrow""}","Lark Sparrow","New World Sparrows and Allies","899"
"","2800","image-multi-choice","97","723889","0.0-1.0-96.0","{""Q0"":""White-throated Sparrow""}","Swamp Sparrow","New World Sparrows and Allies","904"
"","3216","image-multi-choice","98","728121","0.0-1.0-97.0","{""Q0"":""Northern Waterthrush""}","Northern Waterthrush","Wood-Warblers","862"
"","2727","image-multi-choice","99","731867","0.0-1.0-98.0","{""Q0"":""Ovenbird""}","Ovenbird","Wood-Warblers","860"
"","2350","image-multi-choice","100","735234","0.0-1.0-99.0","{""Q0"":""White-throated Sparrow""}","White-throated Sparrow","New World Sparrows and Allies","764"
"","3461","image-multi-choice","101","739713","0.0-1.0-100.0","{""Q0"":""Nashville Warbler""}","Nashville Warbler","Wood-Warblers","868"
"","7382","image-multi-choice","102","748113","0.0-1.0-101.0","{""Q0"":""Townsend's Warbler""}","Magnolia Warbler","Wood-Warblers","758"
"","5831","image-multi-choice","103","754959","0.0-1.0-102.0","{""Q0"":""White-throated Sparrow""}","Swamp Sparrow","New World Sparrows and Allies","904"
"","3401","image-multi-choice","104","759375","0.0-1.0-103.0","{""Q0"":""Blackburnian Warbler""}","Blackburnian Warbler","Wood-Warblers","874"
"","4433","image-multi-choice","105","764826","0.0-1.0-104.0","{""Q0"":""Ovenbird""}","Northern Waterthrush","Wood-Warblers","862"
"","6374","image-multi-choice","106","772218","0.0-1.0-105.0","{""Q0"":""American Tree Sparrow""}","Swamp Sparrow","New World Sparrows and Allies","904"
"","3726","image-multi-choice","107","776963","0.0-1.0-106.0","{""Q0"":""Song Sparrow""}","Song Sparrow","New World Sparrows and Allies","902"
"","3415","image-multi-choice","108","781396","0.0-1.0-107.0","{""Q0"":""Black-and-white Warbler""}","Black-and-white Warbler","Wood-Warblers","864"
"","4469","image-multi-choice","109","786883","0.0-1.0-108.0","{""Q0"":""Blackburnian Warbler""}","Blackburnian Warbler","Wood-Warblers","874"
"","2687","image-multi-choice","110","790591","0.0-1.0-109.0","{""Q0"":""Nashville Warbler""}","Nashville Warbler","Wood-Warblers","868"
"","7475","image-multi-choice","111","799086","0.0-1.0-110.0","{""Q0"":""Chipping Sparrow""}","Chipping Sparrow","New World Sparrows and Allies","769"
"","6105","image-multi-choice","112","806207","0.0-1.0-111.0","{""Q0"":""Swamp Sparrow""}","American Tree Sparrow","New World Sparrows and Allies","894"
"","4824","image-multi-choice","113","812050","0.0-1.0-112.0","{""Q0"":""Northern Waterthrush""}","Northern Waterthrush","Wood-Warblers","862"
"","2151","image-multi-choice","114","815220","0.0-1.0-113.0","{""Q0"":""Yellow Warbler""}","Yellow Warbler","Wood-Warblers","875"
"","2701","image-multi-choice","115","818937","0.0-1.0-114.0","{""Q0"":""Tennessee Warbler""}","Tennessee Warbler","Wood-Warblers","866"
"","6296","image-multi-choice","116","826250","0.0-1.0-115.0","{""Q0"":""Lincoln's Sparrow""}","Lincoln's Sparrow","New World Sparrows and Allies","903"
"","7078","image-multi-choice","117","834344","0.0-1.0-116.0","{""Q0"":""Black-and-white Warbler""}","Black-and-white Warbler","Wood-Warblers","864"
"","11779","image-multi-choice","118","847141","0.0-1.0-117.0","{""Q0"":""Fox Sparrow""}","Song Sparrow","New World Sparrows and Allies","902"
"","5627","image-multi-choice","119","853786","0.0-1.0-118.0","{""Q0"":""Lincoln's Sparrow""}","Lincoln's Sparrow","New World Sparrows and Allies","903"
"","3909","image-multi-choice","120","873118","0.0-1.0-119.0","{""Q0"":""Blackburnian Warbler""}","Blackburnian Warbler","Wood-Warblers","874"
"","4720","image-multi-choice","121","878855","0.0-1.0-120.0","{""Q0"":""Nashville Warbler""}","Nashville Warbler","Wood-Warblers","868"
"","4670","image-multi-choice","122","884544","0.0-1.0-121.0","{""Q0"":""Lincoln's Sparrow""}","Vesper Sparrow","New World Sparrows and Allies","898"
"","8024","image-multi-choice","123","893585","0.0-1.0-122.0","{""Q0"":""Northern Waterthrush""}","Townsend's Warbler","Wood-Warblers","881"
"","5993","image-multi-choice","124","900600","0.0-1.0-123.0","{""Q0"":""Fox Sparrow""}","Song Sparrow","New World Sparrows and Allies","902"
"","2592","image-multi-choice","125","904208","0.0-1.0-124.0","{""Q0"":""White-throated Sparrow""}","White-throated Sparrow","New World Sparrows and Allies","764"
"","2522","image-multi-choice","126","907746","0.0-1.0-125.0","{""Q0"":""Nashville Warbler""}","Nashville Warbler","Wood-Warblers","868"
"","5782","image-multi-choice","127","914543","0.0-1.0-126.0","{""Q0"":""Fox Sparrow""}","Fox Sparrow","New World Sparrows and Allies","901"
"","3830","image-multi-choice","128","919393","0.0-1.0-127.0","{""Q0"":""Magnolia Warbler""}","Magnolia Warbler","Wood-Warblers","758"
"","4459","image-multi-choice","129","924870","0.0-1.0-128.0","{""Q0"":""Tennessee Warbler""}","Nashville Warbler","Wood-Warblers","868"
"","11191","image-multi-choice","130","937079","0.0-1.0-129.0","{""Q0"":""Chipping Sparrow""}","Swamp Sparrow","New World Sparrows and Allies","904"
"","2669","image-multi-choice","131","940771","0.0-1.0-130.0","{""Q0"":""White-throated Sparrow""}","White-throated Sparrow","New World Sparrows and Allies","764"
"","8871","image-multi-choice","132","950669","0.0-1.0-131.0","{""Q0"":""Swamp Sparrow""}","Song Sparrow","New World Sparrows and Allies","902"
"","7993","image-multi-choice","133","959679","0.0-1.0-132.0","{""Q0"":""Yellow Warbler""}","Yellow Warbler","Wood-Warblers","875"
"","6607","image-multi-choice","134","967302","0.0-1.0-133.0","{""Q0"":""Northern Waterthrush""}","Townsend's Warbler","Wood-Warblers","881"
"","3554","image-multi-choice","135","971873","0.0-1.0-134.0","{""Q0"":""Fox Sparrow""}","Fox Sparrow","New World Sparrows and Allies","901"
"","5434","image-multi-choice","136","978325","0.0-1.0-135.0","{""Q0"":""White-crowned Sparrow""}","White-crowned Sparrow","New World Sparrows and Allies","766"
"","5902","image-multi-choice","137","985245","0.0-1.0-136.0","{""Q0"":""Townsend's Warbler""}","Magnolia Warbler","Wood-Warblers","758"
"","5983","image-multi-choice","138","992244","0.0-1.0-137.0","{""Q0"":""Townsend's Warbler""}","Blackburnian Warbler","Wood-Warblers","874"
"","3661","image-multi-choice","139","996924","0.0-1.0-138.0","{""Q0"":""Townsend's Warbler""}","Magnolia Warbler","Wood-Warblers","758"
"","6682","image-multi-choice","140","1004624","0.0-1.0-139.0","{""Q0"":""American Tree Sparrow""}","Chipping Sparrow","New World Sparrows and Allies","769"
"","3998","image-multi-choice","141","1009643","0.0-1.0-140.0","{""Q0"":""Song Sparrow""}","American Tree Sparrow","New World Sparrows and Allies","894"
"","2987","image-multi-choice","142","1013649","0.0-1.0-141.0","{""Q0"":""Tennessee Warbler""}","Orange-crowned Warbler","Wood-Warblers","867"
"","3066","image-multi-choice","143","1017734","0.0-1.0-142.0","{""Q0"":""Fox Sparrow""}","Fox Sparrow","New World Sparrows and Allies","901"
"","4123","image-multi-choice","144","1022875","0.0-1.0-143.0","{""Q0"":""Yellow Warbler""}","Yellow Warbler","Wood-Warblers","875"
"","6303","image-multi-choice","145","1030197","0.0-1.0-144.0","{""Q0"":""Swamp Sparrow""}","American Tree Sparrow","New World Sparrows and Allies","894"
"","7000","image-multi-choice","146","1038212","0.0-1.0-145.0","{""Q0"":""Vesper Sparrow""}","Swamp Sparrow","New World Sparrows and Allies","904"
"","6199","image-multi-choice","147","1045428","0.0-1.0-146.0","{""Q0"":""Lark Sparrow""}","Lark Sparrow","New World Sparrows and Allies","899"
"","5018","image-multi-choice","148","1051464","0.0-1.0-147.0","{""Q0"":""Vesper Sparrow""}","Vesper Sparrow","New World Sparrows and Allies","898"
"","9166","image-multi-choice","149","1061654","0.0-1.0-148.0","{""Q0"":""Song Sparrow""}","Fox Sparrow","New World Sparrows and Allies","901"
"","4260","image-multi-choice","150","1066933","0.0-1.0-149.0","{""Q0"":""White-throated Sparrow""}","Song Sparrow","New World Sparrows and Allies","902"
"","4857","image-multi-choice","151","1072807","0.0-1.0-150.0","{""Q0"":""Blackburnian Warbler""}","Blackburnian Warbler","Wood-Warblers","874"
"","2835","image-multi-choice","152","1076662","0.0-1.0-151.0","{""Q0"":""Tennessee Warbler""}","Orange-crowned Warbler","Wood-Warblers","867"
"","3309","image-multi-choice","153","1080986","0.0-1.0-152.0","{""Q0"":""Fox Sparrow""}","Fox Sparrow","New World Sparrows and Allies","901"
"","2914","image-multi-choice","154","1084917","0.0-1.0-153.0","{""Q0"":""Tennessee Warbler""}","Orange-crowned Warbler","Wood-Warblers","867"
"","5041","image-multi-choice","155","1090974","0.0-1.0-154.0","{""Q0"":""Townsend's Warbler""}","Townsend's Warbler","Wood-Warblers","881"
"","4673","image-multi-choice","156","1096663","0.0-1.0-155.0","{""Q0"":""Ovenbird""}","Ovenbird","Wood-Warblers","860"
"","9839","image-multi-choice","157","1107517","0.0-1.0-156.0","{""Q0"":""Yellow Warbler""}","Nashville Warbler","Wood-Warblers","868"
"","7544","image-multi-choice","158","1116079","0.0-1.0-157.0","{""Q0"":""Lincoln's Sparrow""}","Song Sparrow","New World Sparrows and Allies","902"
"","3145","image-multi-choice","159","1120241","0.0-1.0-158.0","{""Q0"":""Yellow Warbler""}","Yellow Warbler","Wood-Warblers","875"
"","3022","image-multi-choice","160","1124280","0.0-1.0-159.0","{""Q0"":""Fox Sparrow""}","Fox Sparrow","New World Sparrows and Allies","901"
"","4960","image-multi-choice","161","1130255","0.0-1.0-160.0","{""Q0"":""Black-and-white Warbler""}","Black-and-white Warbler","Wood-Warblers","864"
"","4531","image-multi-choice","162","1135802","0.0-1.0-161.0","{""Q0"":""Orange-crowned Warbler""}","Orange-crowned Warbler","Wood-Warblers","867"
"","7207","image-multi-choice","163","1144025","0.0-1.0-162.0","{""Q0"":""Swamp Sparrow""}","American Tree Sparrow","New World Sparrows and Allies","894"
"","4222","image-multi-choice","164","1149266","0.0-1.0-163.0","{""Q0"":""Townsend's Warbler""}","Townsend's Warbler","Wood-Warblers","881"
"","2590","image-multi-choice","165","1152874","0.0-1.0-164.0","{""Q0"":""Song Sparrow""}","Song Sparrow","New World Sparrows and Allies","902"
"","3833","image-multi-choice","166","1157721","0.0-1.0-165.0","{""Q0"":""Orange-crowned Warbler""}","Nashville Warbler","Wood-Warblers","868"
"","3499","image-multi-choice","167","1162238","0.0-1.0-166.0","{""Q0"":""Tennessee Warbler""}","Tennessee Warbler","Wood-Warblers","866"
"","4286","image-multi-choice","168","1167540","0.0-1.0-167.0","{""Q0"":""Chipping Sparrow""}","Chipping Sparrow","New World Sparrows and Allies","769"
"","2961","image-multi-choice","169","1171517","0.0-1.0-168.0","{""Q0"":""Ovenbird""}","Ovenbird","Wood-Warblers","860"
"","2381","image-multi-choice","170","1174915","0.0-1.0-169.0","{""Q0"":""White-throated Sparrow""}","White-throated Sparrow","New World Sparrows and Allies","764"
"","4188","image-multi-choice","171","1180118","0.0-1.0-170.0","{""Q0"":""Fox Sparrow""}","Fox Sparrow","New World Sparrows and Allies","901"
"","4053","image-multi-choice","172","1185189","0.0-1.0-171.0","{""Q0"":""Blackburnian Warbler""}","Blackburnian Warbler","Wood-Warblers","874"
"","3733","image-multi-choice","173","1189936","0.0-1.0-172.0","{""Q0"":""American Tree Sparrow""}","American Tree Sparrow","New World Sparrows and Allies","894"
"","5567","image-multi-choice","174","1196518","0.0-1.0-173.0","{""Q0"":""Swamp Sparrow""}","Swamp Sparrow","New World Sparrows and Allies","904"
"","6581","image-multi-choice","175","1204116","0.0-1.0-174.0","{""Q0"":""Townsend's Warbler""}","Townsend's Warbler","Wood-Warblers","881"
"","6012","image-multi-choice","176","1211144","0.0-1.0-175.0","{""Q0"":""Orange-crowned Warbler""}","Tennessee Warbler","Wood-Warblers","866"
"","2861","image-multi-choice","177","1215023","0.0-1.0-176.0","{""Q0"":""Northern Waterthrush""}","Northern Waterthrush","Wood-Warblers","862"
"","8699","image-multi-choice","178","1224740","0.0-1.0-177.0","{""Q0"":""White-throated Sparrow""}","Swamp Sparrow","New World Sparrows and Allies","904"
"","4887","image-multi-choice","179","1230643","0.0-1.0-178.0","{""Q0"":""Fox Sparrow""}","Fox Sparrow","New World Sparrows and Allies","901"
"","7004","image-multi-choice","180","1242334","0.0-1.0-179.0","{""Q0"":""Swamp Sparrow""}","American Tree Sparrow","New World Sparrows and Allies","894"
"","3620","image-multi-choice","181","1246969","0.0-1.0-180.0","{""Q0"":""Fox Sparrow""}","Fox Sparrow","New World Sparrows and Allies","901"
"","7253","image-multi-choice","182","1255239","0.0-1.0-181.0","{""Q0"":""Swamp Sparrow""}","Vesper Sparrow","New World Sparrows and Allies","898"
"","5189","image-multi-choice","183","1261443","0.0-1.0-182.0","{""Q0"":""Lincoln's Sparrow""}","Song Sparrow","New World Sparrows and Allies","902"
"","3717","image-multi-choice","184","1266177","0.0-1.0-183.0","{""Q0"":""Townsend's Warbler""}","Blackburnian Warbler","Wood-Warblers","874"
"","2569","image-multi-choice","185","1269761","0.0-1.0-184.0","{""Q0"":""White-crowned Sparrow""}","White-crowned Sparrow","New World Sparrows and Allies","766"
"","2999","image-multi-choice","186","1273777","0.0-1.0-185.0","{""Q0"":""American Tree Sparrow""}","American Tree Sparrow","New World Sparrows and Allies","894"
"","3815","image-multi-choice","187","1278609","0.0-1.0-186.0","{""Q0"":""Black-and-white Warbler""}","Black-and-white Warbler","Wood-Warblers","864"
"","2442","image-multi-choice","188","1282068","0.0-1.0-187.0","{""Q0"":""Lark Sparrow""}","Lark Sparrow","New World Sparrows and Allies","899"
"","3262","image-multi-choice","189","1286347","0.0-1.0-188.0","{""Q0"":""Nashville Warbler""}","Nashville Warbler","Wood-Warblers","868"
"","4714","image-multi-choice","190","1292081","0.0-1.0-189.0","{""Q0"":""Northern Waterthrush""}","Northern Waterthrush","Wood-Warblers","862"
"","4232","image-multi-choice","191","1297330","0.0-1.0-190.0","{""Q0"":""Tennessee Warbler""}","Tennessee Warbler","Wood-Warblers","866"
"","4156","image-multi-choice","192","1302502","0.0-1.0-191.0","{""Q0"":""Nashville Warbler""}","Nashville Warbler","Wood-Warblers","868"
"","5048","image-multi-choice","193","1308567","0.0-1.0-192.0","{""Q0"":""Fox Sparrow""}","Fox Sparrow","New World Sparrows and Allies","901"
"","7887","image-multi-choice","194","1317471","0.0-1.0-193.0","{""Q0"":""Townsend's Warbler""}","Blackburnian Warbler","Wood-Warblers","874"
"","4160","image-multi-choice","195","1322649","0.0-1.0-194.0","{""Q0"":""Fox Sparrow""}","Swamp Sparrow","New World Sparrows and Allies","904"
"","4512","image-multi-choice","196","1328180","0.0-1.0-195.0","{""Q0"":""Blackburnian Warbler""}","Townsend's Warbler","Wood-Warblers","881"
"","3553","image-multi-choice","197","1332750","0.0-1.0-196.0","{""Q0"":""Orange-crowned Warbler""}","Tennessee Warbler","Wood-Warblers","866"
"","2705","image-multi-choice","198","1336473","0.0-1.0-197.0","{""Q0"":""White-crowned Sparrow""}","White-crowned Sparrow","New World Sparrows and Allies","766"
"","3473","image-multi-choice","199","1340967","0.0-1.0-198.0","{""Q0"":""Ovenbird""}","Ovenbird","Wood-Warblers","860"
"","5909","image-multi-choice","200","1347895","0.0-1.0-199.0","{""Q0"":""Swamp Sparrow""}","Vesper Sparrow","New World Sparrows and Allies","898"
"","4473","image-multi-choice","201","1353388","0.0-1.0-200.0","{""Q0"":""Townsend's Warbler""}","Blackburnian Warbler","Wood-Warblers","874"
"","7049","image-multi-choice","202","1361456","0.0-1.0-201.0","{""Q0"":""Song Sparrow""}","Chipping Sparrow","New World Sparrows and Allies","769"
"","8414","image-multi-choice","203","1370888","0.0-1.0-202.0","{""Q0"":""Vesper Sparrow""}","Vesper Sparrow","New World Sparrows and Allies","898"
"","2352","image-multi-choice","204","1374257","0.0-1.0-203.0","{""Q0"":""Yellow Warbler""}","Yellow Warbler","Wood-Warblers","875"
"","3010","image-multi-choice","205","1378286","0.0-1.0-204.0","{""Q0"":""Orange-crowned Warbler""}","Orange-crowned Warbler","Wood-Warblers","867"
"","2051","image-multi-choice","206","1381352","0.0-1.0-205.0","{""Q0"":""White-throated Sparrow""}","White-throated Sparrow","New World Sparrows and Allies","764"
"","3452","image-multi-choice","207","1385822","0.0-1.0-206.0","{""Q0"":""American Tree Sparrow""}","American Tree Sparrow","New World Sparrows and Allies","894"
"","4601","image-multi-choice","208","1391440","0.0-1.0-207.0","{""Q0"":""Nashville Warbler""}","Orange-crowned Warbler","Wood-Warblers","867"
"","4153","image-multi-choice","209","1396610","0.0-1.0-208.0","{""Q0"":""Black-and-white Warbler""}","Black-and-white Warbler","Wood-Warblers","864"
"","2891","image-multi-choice","210","1400518","0.0-1.0-209.0","{""Q0"":""Lark Sparrow""}","Lark Sparrow","New World Sparrows and Allies","899"
"","6681","image-multi-choice","211","1408216","0.0-1.0-210.0","{""Q0"":""White-throated Sparrow""}","Chipping Sparrow","New World Sparrows and Allies","769"
"","3873","image-multi-choice","212","1413110","0.0-1.0-211.0","{""Q0"":""Orange-crowned Warbler""}","Orange-crowned Warbler","Wood-Warblers","867"
"","2839","image-multi-choice","213","1416972","0.0-1.0-212.0","{""Q0"":""Yellow Warbler""}","Yellow Warbler","Wood-Warblers","875"
"","3274","image-multi-choice","214","1421264","0.0-1.0-213.0","{""Q0"":""American Tree Sparrow""}","American Tree Sparrow","New World Sparrows and Allies","894"
"","7090","image-multi-choice","215","1429372","0.0-1.0-214.0","{""Q0"":""Vesper Sparrow""}","Vesper Sparrow","New World Sparrows and Allies","898"
"","2766","image-multi-choice","216","1433156","0.0-1.0-215.0","{""Q0"":""Ovenbird""}","Ovenbird","Wood-Warblers","860"
"","4523","image-multi-choice","217","1438695","0.0-1.0-216.0","{""Q0"":""Lark Sparrow""}","Lark Sparrow","New World Sparrows and Allies","899"
"","5510","image-multi-choice","218","1445224","0.0-1.0-217.0","{""Q0"":""Lincoln's Sparrow""}","Lincoln's Sparrow","New World Sparrows and Allies","903"
"","6853","image-multi-choice","219","1453093","0.0-1.0-218.0","{""Q0"":""Chipping Sparrow""}","Chipping Sparrow","New World Sparrows and Allies","769"
"","7744","image-multi-choice","220","1461854","0.0-1.0-219.0","{""Q0"":""Lincoln's Sparrow""}","Lincoln's Sparrow","New World Sparrows and Allies","903"
"","7906","image-multi-choice","221","1470779","0.0-1.0-220.0","{""Q0"":""Townsend's Warbler""}","Northern Waterthrush","Wood-Warblers","862"
"","6451","image-multi-choice","222","1478246","0.0-1.0-221.0","{""Q0"":""American Tree Sparrow""}","Chipping Sparrow","New World Sparrows and Allies","769"
"","3619","image-multi-choice","223","1482885","0.0-1.0-222.0","{""Q0"":""Lincoln's Sparrow""}","Lincoln's Sparrow","New World Sparrows and Allies","903"
"","4793","image-multi-choice","224","1488695","0.0-1.0-223.0","{""Q0"":""Blackburnian Warbler""}","Blackburnian Warbler","Wood-Warblers","874"
"","5563","image-multi-choice","225","1495274","0.0-1.0-224.0","{""Q0"":""Vesper Sparrow""}","Swamp Sparrow","New World Sparrows and Allies","904"
"","3939","image-multi-choice","226","1500231","0.0-1.0-225.0","{""Q0"":""American Tree Sparrow""}","American Tree Sparrow","New World Sparrows and Allies","894"
"","7057","image-multi-choice","227","1508306","0.0-1.0-226.0","{""Q0"":""Fox Sparrow""}","Fox Sparrow","New World Sparrows and Allies","901"
"","5505","image-multi-choice","228","1514826","0.0-1.0-227.0","{""Q0"":""Northern Waterthrush""}","Northern Waterthrush","Wood-Warblers","862"
"","4841","image-multi-choice","229","1520684","0.0-1.0-228.0","{""Q0"":""Nashville Warbler""}","Nashville Warbler","Wood-Warblers","868"
"","3554","image-multi-choice","230","1525254","0.0-1.0-229.0","{""Q0"":""Black-and-white Warbler""}","Black-and-white Warbler","Wood-Warblers","864"
"","2951","image-multi-choice","231","1529222","0.0-1.0-230.0","{""Q0"":""Tennessee Warbler""}","Tennessee Warbler","Wood-Warblers","866"
"","3323","image-multi-choice","232","1533562","0.0-1.0-231.0","{""Q0"":""Townsend's Warbler""}","Townsend's Warbler","Wood-Warblers","881"
"","5417","image-multi-choice","233","1539996","0.0-1.0-232.0","{""Q0"":""Townsend's Warbler""}","Magnolia Warbler","Wood-Warblers","758"
"","2658","image-multi-choice","234","1543671","0.0-1.0-233.0","{""Q0"":""Northern Waterthrush""}","Northern Waterthrush","Wood-Warblers","862"
"","3191","image-multi-choice","235","1547880","0.0-1.0-234.0","{""Q0"":""Orange-crowned Warbler""}","Orange-crowned Warbler","Wood-Warblers","867"
"","1996","image-multi-choice","236","1550892","0.0-1.0-235.0","{""Q0"":""White-throated Sparrow""}","White-throated Sparrow","New World Sparrows and Allies","764"
"","3020","image-multi-choice","237","1554930","0.0-1.0-236.0","{""Q0"":""Yellow Warbler""}","Yellow Warbler","Wood-Warblers","875"
"","2566","image-multi-choice","238","1558514","0.0-1.0-237.0","{""Q0"":""Fox Sparrow""}","Fox Sparrow","New World Sparrows and Allies","901"
"","10459","image-multi-choice","239","1569989","0.0-1.0-238.0","{""Q0"":""Lincoln's Sparrow""}","Swamp Sparrow","New World Sparrows and Allies","904"
"","4994","image-multi-choice","240","1579843","0.0-1.0-239.0","{""Q0"":""Fox Sparrow""}","Fox Sparrow","New World Sparrows and Allies","901"
"","3987","image-multi-choice","241","1584847","0.0-1.0-240.0","{""Q0"":""Orange-crowned Warbler""}","Orange-crowned Warbler","Wood-Warblers","867"
"","2945","image-multi-choice","242","1588809","0.0-1.0-241.0","{""Q0"":""White-crowned Sparrow""}","White-crowned Sparrow","New World Sparrows and Allies","766"
"","4826","image-multi-choice","243","1594650","0.0-1.0-242.0","{""Q0"":""Lark Sparrow""}","White-throated Sparrow","New World Sparrows and Allies","764"
"","19696","image-multi-choice","244","1615362","0.0-1.0-243.0","{""Q0"":""Chipping Sparrow""}","Song Sparrow","New World Sparrows and Allies","902"
"","2685","image-multi-choice","245","1619063","0.0-1.0-244.0","{""Q0"":""Lark Sparrow""}","Lark Sparrow","New World Sparrows and Allies","899"
"","4367","image-multi-choice","246","1624449","0.0-1.0-245.0","{""Q0"":""Vesper Sparrow""}","Vesper Sparrow","New World Sparrows and Allies","898"
"","2835","image-multi-choice","247","1628302","0.0-1.0-246.0","{""Q0"":""Lark Sparrow""}","Lark Sparrow","New World Sparrows and Allies","899"
"","3283","image-multi-choice","248","1632602","0.0-1.0-247.0","{""Q0"":""American Tree Sparrow""}","American Tree Sparrow","New World Sparrows and Allies","894"
"","3564","image-multi-choice","249","1637180","0.0-1.0-248.0","{""Q0"":""Black-and-white Warbler""}","Black-and-white Warbler","Wood-Warblers","864"
"","5417","image-multi-choice","250","1643614","0.0-1.0-249.0","{""Q0"":""Lark Sparrow""}","Lark Sparrow","New World Sparrows and Allies","899"
"","4378","image-multi-choice","251","1649010","0.0-1.0-250.0","{""Q0"":""Orange-crowned Warbler""}","Orange-crowned Warbler","Wood-Warblers","867"
"","4748","image-multi-choice","252","1654776","0.0-1.0-251.0","{""Q0"":""Blackburnian Warbler""}","Blackburnian Warbler","Wood-Warblers","874"
"","4663","image-multi-choice","253","1660454","0.0-1.0-252.0","{""Q0"":""Swamp Sparrow""}","Vesper Sparrow","New World Sparrows and Allies","898"
"","4505","image-multi-choice","254","1665978","0.0-1.0-253.0","{""Q0"":""Blackburnian Warbler""}","Townsend's Warbler","Wood-Warblers","881"
"","4411","image-multi-choice","255","1671404","0.0-1.0-254.0","{""Q0"":""Vesper Sparrow""}","Swamp Sparrow","New World Sparrows and Allies","904"
"","3052","image-multi-choice","256","1675473","0.0-1.0-255.0","{""Q0"":""Song Sparrow""}","Song Sparrow","New World Sparrows and Allies","902"
"","2734","image-multi-choice","257","1679224","0.0-1.0-256.0","{""Q0"":""White-throated Sparrow""}","Swamp Sparrow","New World Sparrows and Allies","904"
"","4198","image-multi-choice","258","1684441","0.0-1.0-257.0","{""Q0"":""Ovenbird""}","Ovenbird","Wood-Warblers","860"
"","3677","image-multi-choice","259","1689135","0.0-1.0-258.0","{""Q0"":""Black-and-white Warbler""}","Black-and-white Warbler","Wood-Warblers","864"
"","4059","image-multi-choice","260","1694212","0.0-1.0-259.0","{""Q0"":""American Tree Sparrow""}","American Tree Sparrow","New World Sparrows and Allies","894"
"","2434","image-multi-choice","261","1697664","0.0-1.0-260.0","{""Q0"":""Yellow Warbler""}","Yellow Warbler","Wood-Warblers","875"
"","11434","image-multi-choice","262","1710134","0.0-1.0-261.0","{""Q0"":""Orange-crowned Warbler""}","Vesper Sparrow","New World Sparrows and Allies","898"
"","4968","image-multi-choice","263","1716117","0.0-1.0-262.0","{""Q0"":""Chipping Sparrow""}","Chipping Sparrow","New World Sparrows and Allies","769"
"","4000","image-multi-choice","264","1721133","0.0-1.0-263.0","{""Q0"":""Northern Waterthrush""}","Northern Waterthrush","Wood-Warblers","862"
"","7718","image-multi-choice","265","1729871","0.0-1.0-264.0","{""Q0"":""Swamp Sparrow""}","Song Sparrow","New World Sparrows and Allies","902"
"","4507","image-multi-choice","266","1735395","0.0-1.0-265.0","{""Q0"":""Nashville Warbler""}","Nashville Warbler","Wood-Warblers","868"
"","2090","image-multi-choice","267","1738501","0.0-1.0-266.0","{""Q0"":""White-throated Sparrow""}","White-throated Sparrow","New World Sparrows and Allies","764"
"","4385","image-multi-choice","268","1743905","0.0-1.0-267.0","{""Q0"":""White-crowned Sparrow""}","White-crowned Sparrow","New World Sparrows and Allies","766"
"","3111","image-multi-choice","269","1748033","0.0-1.0-268.0","{""Q0"":""American Tree Sparrow""}","American Tree Sparrow","New World Sparrows and Allies","894"
"","6863","image-multi-choice","270","1755917","0.0-1.0-269.0","{""Q0"":""White-throated Sparrow""}","White-throated Sparrow","New World Sparrows and Allies","764"
"","2167","image-multi-choice","271","1759100","0.0-1.0-270.0","{""Q0"":""White-crowned Sparrow""}","White-crowned Sparrow","New World Sparrows and Allies","766"
"","1965","image-multi-choice","272","1762082","0.0-1.0-271.0","{""Q0"":""Yellow Warbler""}","Yellow Warbler","Wood-Warblers","875"
"","7308","image-multi-choice","273","1770405","0.0-1.0-272.0","{""Q0"":""Lark Sparrow""}","Chipping Sparrow","New World Sparrows and Allies","769"
"","2930","image-multi-choice","274","1774350","0.0-1.0-273.0","{""Q0"":""Ovenbird""}","Ovenbird","Wood-Warblers","860"
"","4149","image-multi-choice","275","1779522","0.0-1.0-274.0","{""Q0"":""Northern Waterthrush""}","Northern Waterthrush","Wood-Warblers","862"
"","11658","image-multi-choice","276","1792197","0.0-1.0-275.0","{""Q0"":""Lark Sparrow""}","Ovenbird","Wood-Warblers","860"
"","3298","image-multi-choice","277","1796511","0.0-1.0-276.0","{""Q0"":""Townsend's Warbler""}","Black-and-white Warbler","Wood-Warblers","864"
"","3252","image-multi-choice","278","1800783","0.0-1.0-277.0","{""Q0"":""Chipping Sparrow""}","Chipping Sparrow","New World Sparrows and Allies","769"
"","2678","image-multi-choice","279","1804479","0.0-1.0-278.0","{""Q0"":""Fox Sparrow""}","Fox Sparrow","New World Sparrows and Allies","901"
"","6059","image-multi-choice","280","1811554","0.0-1.0-279.0","{""Q0"":""Magnolia Warbler""}","Magnolia Warbler","Wood-Warblers","758"
"","2797","image-multi-choice","281","1815367","0.0-1.0-280.0","{""Q0"":""White-crowned Sparrow""}","White-crowned Sparrow","New World Sparrows and Allies","766"
"","2035","image-multi-choice","282","1818420","0.0-1.0-281.0","{""Q0"":""White-throated Sparrow""}","White-throated Sparrow","New World Sparrows and Allies","764"
"","15166","image-multi-choice","283","1834603","0.0-1.0-282.0","{""Q0"":""Swamp Sparrow""}","Swamp Sparrow","New World Sparrows and Allies","904"
"","4416","image-multi-choice","284","1840034","0.0-1.0-283.0","{""Q0"":""Townsend's Warbler""}","Magnolia Warbler","Wood-Warblers","758"
"","4449","image-multi-choice","285","1845500","0.0-1.0-284.0","{""Q0"":""Orange-crowned Warbler""}","Orange-crowned Warbler","Wood-Warblers","867"
"","7713","image-multi-choice","286","1854230","0.0-1.0-285.0","{""Q0"":""Magnolia Warbler""}","Magnolia Warbler","Wood-Warblers","758"
"","3283","image-multi-choice","287","1858529","0.0-1.0-286.0","{""Q0"":""Song Sparrow""}","Vesper Sparrow","New World Sparrows and Allies","898"
"","3105","image-multi-choice","288","1862651","0.0-1.0-287.0","{""Q0"":""Northern Waterthrush""}","Northern Waterthrush","Wood-Warblers","862"
"","3902","image-multi-choice","289","1867568","0.0-1.0-288.0","{""Q0"":""Blackburnian Warbler""}","Blackburnian Warbler","Wood-Warblers","874"
"","3530","image-multi-choice","290","1872113","0.0-1.0-289.0","{""Q0"":""Tennessee Warbler""}","Tennessee Warbler","Wood-Warblers","866"
"","2844","image-multi-choice","291","1875973","0.0-1.0-290.0","{""Q0"":""Lark Sparrow""}","Lark Sparrow","New World Sparrows and Allies","899"
"","7823","image-multi-choice","292","1884812","0.0-1.0-291.0","{""Q0"":""Black-and-white Warbler""}","Black-and-white Warbler","Wood-Warblers","864"
"","4832","image-multi-choice","293","1890659","0.0-1.0-292.0","{""Q0"":""Vesper Sparrow""}","Lincoln's Sparrow","New World Sparrows and Allies","903"
"","8471","image-multi-choice","294","1900146","0.0-1.0-293.0","{""Q0"":""Tennessee Warbler""}","Tennessee Warbler","Wood-Warblers","866"
"","5633","image-multi-choice","295","1906796","0.0-1.0-294.0","{""Q0"":""Ovenbird""}","Ovenbird","Wood-Warblers","860"
"","10065","image-multi-choice","296","1917876","0.0-1.0-295.0","{""Q0"":""Lincoln's Sparrow""}","Vesper Sparrow","New World Sparrows and Allies","898"
"","2734","image-multi-choice","297","1921627","0.0-1.0-296.0","{""Q0"":""Northern Waterthrush""}","Northern Waterthrush","Wood-Warblers","862"
"","4664","image-multi-choice","298","1927308","0.0-1.0-297.0","{""Q0"":""Swamp Sparrow""}","Chipping Sparrow","New World Sparrows and Allies","769"
"","6774","image-multi-choice","299","1935099","0.0-1.0-298.0","{""Q0"":""Lark Sparrow""}","Lark Sparrow","New World Sparrows and Allies","899"
"","1779","image-multi-choice","300","1942978","0.0-1.0-299.0","{""Q0"":""Yellow Warbler""}","Yellow Warbler","Wood-Warblers","875"
"[{""page_index"":0,""viewing_time"":1418}]","1419","instructions","301","1945399","0.0-2.0","","","",""
