[{"view_history":"[{\"page_index\":0,\"viewing_time\":2942}]","rt":2944,"trial_type":"instructions","trial_index":0,"time_elapsed":2946,"internal_node_id":"0.0-0.0"},{"rt":9326,"responses":"{\"Q0\":\"American Tree Sparrow\"}","bird":["American Tree Sparrow"],"family":["New World Sparrows and Allies"],"class":["894"],"trial_type":"image-multi-choice","trial_index":1,"time_elapsed":13320,"internal_node_id":"0.0-1.0-0.0"},{"rt":9742,"responses":"{\"Q0\":\"Tennessee Warbler\"}","bird":["Tennessee Warbler"],"family":["Wood-Warblers"],"class":["866"],"trial_type":"image-multi-choice","trial_index":2,"time_elapsed":24091,"internal_node_id":"0.0-1.0-1.0"},{"rt":4482,"responses":"{\"Q0\":\"White-crowned Sparrow\"}","bird":["White-crowned Sparrow"],"family":["New World Sparrows and Allies"],"class":["766"],"trial_type":"image-multi-choice","trial_index":3,"time_elapsed":29602,"internal_node_id":"0.0-1.0-2.0"},{"rt":4464,"responses":"{\"Q0\":\"American Tree Sparrow\"}","bird":["American Tree Sparrow"],"family":["New World Sparrows and Allies"],"class":["894"],"trial_type":"image-multi-choice","trial_index":4,"time_elapsed":35089,"internal_node_id":"0.0-1.0-3.0"},{"rt":3497,"responses":"{\"Q0\":\"White-crowned Sparrow\"}","bird":["White-crowned Sparrow"],"family":["New World Sparrows and Allies"],"class":["766"],"trial_type":"image-multi-choice","trial_index":5,"time_elapsed":39606,"internal_node_id":"0.0-1.0-4.0"},{"rt":8086,"responses":"{\"Q0\":\"Townsend's Warbler\"}","bird":["Townsend's Warbler"],"family":["Wood-Warblers"],"class":["881"],"trial_type":"image-multi-choice","trial_index":6,"time_elapsed":48701,"internal_node_id":"0.0-1.0-5.0"},{"rt":4062,"responses":"{\"Q0\":\"Vesper Sparrow\"}","bird":["Vesper Sparrow"],"family":["New World Sparrows and Allies"],"class":["898"],"trial_type":"image-multi-choice","trial_index":7,"time_elapsed":53788,"internal_node_id":"0.0-1.0-6.0"},{"rt":10752,"responses":"{\"Q0\":\"Nashville Warbler\"}","bird":["Nashville Warbler"],"family":["Wood-Warblers"],"class":["868"],"trial_type":"image-multi-choice","trial_index":8,"time_elapsed":65556,"internal_node_id":"0.0-1.0-7.0"},{"rt":7352,"responses":"{\"Q0\":\"Northern Waterthrush\"}","bird":["Northern Waterthrush"],"family":["Wood-Warblers"],"class":["862"],"trial_type":"image-multi-choice","trial_index":9,"time_elapsed":73927,"internal_node_id":"0.0-1.0-8.0"},{"rt":3230,"responses":"{\"Q0\":\"Ovenbird\"}","bird":["Ovenbird"],"family":["Wood-Warblers"],"class":["860"],"trial_type":"image-multi-choice","trial_index":10,"time_elapsed":78170,"internal_node_id":"0.0-1.0-9.0"},{"rt":10619,"responses":"{\"Q0\":\"Vesper Sparrow\"}","bird":["Lincoln's Sparrow"],"family":["New World Sparrows and Allies"],"class":["903"],"trial_type":"image-multi-choice","trial_index":11,"time_elapsed":89816,"internal_node_id":"0.0-1.0-10.0"},{"rt":9715,"responses":"{\"Q0\":\"Townsend's Warbler\"}","bird":["Townsend's Warbler"],"family":["Wood-Warblers"],"class":["881"],"trial_type":"image-multi-choice","trial_index":12,"time_elapsed":100553,"internal_node_id":"0.0-1.0-11.0"},{"rt":4117,"responses":"{\"Q0\":\"Fox Sparrow\"}","bird":["Fox Sparrow"],"family":["New World Sparrows and Allies"],"class":["901"],"trial_type":"image-multi-choice","trial_index":13,"time_elapsed":105698,"internal_node_id":"0.0-1.0-12.0"},{"rt":5185,"responses":"{\"Q0\":\"Blackburnian Warbler\"}","bird":["Blackburnian Warbler"],"family":["Wood-Warblers"],"class":["874"],"trial_type":"image-multi-choice","trial_index":14,"time_elapsed":111911,"internal_node_id":"0.0-1.0-13.0"},{"rt":3572,"responses":"{\"Q0\":\"Vesper Sparrow\"}","bird":["Vesper Sparrow"],"family":["New World Sparrows and Allies"],"class":["898"],"trial_type":"image-multi-choice","trial_index":15,"time_elapsed":116507,"internal_node_id":"0.0-1.0-14.0"},{"rt":3288,"responses":"{\"Q0\":\"Black-and-white Warbler\"}","bird":["Black-and-white Warbler"],"family":["Wood-Warblers"],"class":["864"],"trial_type":"image-multi-choice","trial_index":16,"time_elapsed":120808,"internal_node_id":"0.0-1.0-15.0"},{"rt":5628,"responses":"{\"Q0\":\"Nashville Warbler\"}","bird":["Nashville Warbler"],"family":["Wood-Warblers"],"class":["868"],"trial_type":"image-multi-choice","trial_index":17,"time_elapsed":127455,"internal_node_id":"0.0-1.0-16.0"},{"rt":5308,"responses":"{\"Q0\":\"Lincoln's Sparrow\"}","bird":["Lincoln's Sparrow"],"family":["New World Sparrows and Allies"],"class":["903"],"trial_type":"image-multi-choice","trial_index":18,"time_elapsed":133786,"internal_node_id":"0.0-1.0-17.0"},{"rt":8608,"responses":"{\"Q0\":\"Nashville Warbler\"}","bird":["Nashville Warbler"],"family":["Wood-Warblers"],"class":["868"],"trial_type":"image-multi-choice","trial_index":19,"time_elapsed":143416,"internal_node_id":"0.0-1.0-18.0"},{"rt":3369,"responses":"{\"Q0\":\"Lark Sparrow\"}","bird":["Lark Sparrow"],"family":["New World Sparrows and Allies"],"class":["899"],"trial_type":"image-multi-choice","trial_index":20,"time_elapsed":147813,"internal_node_id":"0.0-1.0-19.0"},{"rt":4192,"responses":"{\"Q0\":\"Magnolia Warbler\"}","bird":["Magnolia Warbler"],"family":["Wood-Warblers"],"class":["758"],"trial_type":"image-multi-choice","trial_index":21,"time_elapsed":153031,"internal_node_id":"0.0-1.0-20.0"},{"rt":3910,"responses":"{\"Q0\":\"Townsend's Warbler\"}","bird":["Townsend's Warbler"],"family":["Wood-Warblers"],"class":["881"],"trial_type":"image-multi-choice","trial_index":22,"time_elapsed":157963,"internal_node_id":"0.0-1.0-21.0"},{"rt":5492,"responses":"{\"Q0\":\"Swamp Sparrow\"}","bird":["Swamp Sparrow"],"family":["New World Sparrows and Allies"],"class":["904"],"trial_type":"image-multi-choice","trial_index":23,"time_elapsed":164469,"internal_node_id":"0.0-1.0-22.0"},{"rt":4484,"responses":"{\"Q0\":\"Tennessee Warbler\"}","bird":["Tennessee Warbler"],"family":["Wood-Warblers"],"class":["866"],"trial_type":"image-multi-choice","trial_index":24,"time_elapsed":169973,"internal_node_id":"0.0-1.0-23.0"},{"rt":3191,"responses":"{\"Q0\":\"Ovenbird\"}","bird":["Ovenbird"],"family":["Wood-Warblers"],"class":["860"],"trial_type":"image-multi-choice","trial_index":25,"time_elapsed":174188,"internal_node_id":"0.0-1.0-24.0"},{"rt":2379,"responses":"{\"Q0\":\"White-crowned Sparrow\"}","bird":["White-crowned Sparrow"],"family":["New World Sparrows and Allies"],"class":["766"],"trial_type":"image-multi-choice","trial_index":26,"time_elapsed":177588,"internal_node_id":"0.0-1.0-25.0"},{"rt":3205,"responses":"{\"Q0\":\"Vesper Sparrow\"}","bird":["Vesper Sparrow"],"family":["New World Sparrows and Allies"],"class":["898"],"trial_type":"image-multi-choice","trial_index":27,"time_elapsed":181809,"internal_node_id":"0.0-1.0-26.0"},{"rt":10146,"responses":"{\"Q0\":\"Orange-crowned Warbler\"}","bird":["Orange-crowned Warbler"],"family":["Wood-Warblers"],"class":["867"],"trial_type":"image-multi-choice","trial_index":28,"time_elapsed":192970,"internal_node_id":"0.0-1.0-27.0"},{"rt":5239,"responses":"{\"Q0\":\"American Tree Sparrow\"}","bird":["American Tree Sparrow"],"family":["New World Sparrows and Allies"],"class":["894"],"trial_type":"image-multi-choice","trial_index":29,"time_elapsed":199229,"internal_node_id":"0.0-1.0-28.0"},{"rt":4657,"responses":"{\"Q0\":\"Tennessee Warbler\"}","bird":["Tennessee Warbler"],"family":["Wood-Warblers"],"class":["866"],"trial_type":"image-multi-choice","trial_index":30,"time_elapsed":204900,"internal_node_id":"0.0-1.0-29.0"},{"rt":4606,"responses":"{\"Q0\":\"Magnolia Warbler\"}","bird":["Magnolia Warbler"],"family":["Wood-Warblers"],"class":["758"],"trial_type":"image-multi-choice","trial_index":31,"time_elapsed":210521,"internal_node_id":"0.0-1.0-30.0"},{"rt":5307,"responses":"{\"Q0\":\"Blackburnian Warbler\"}","bird":["Blackburnian Warbler"],"family":["Wood-Warblers"],"class":["874"],"trial_type":"image-multi-choice","trial_index":32,"time_elapsed":216852,"internal_node_id":"0.0-1.0-31.0"},{"rt":8692,"responses":"{\"Q0\":\"Tennessee Warbler\"}","bird":["Tennessee Warbler"],"family":["Wood-Warblers"],"class":["866"],"trial_type":"image-multi-choice","trial_index":33,"time_elapsed":226563,"internal_node_id":"0.0-1.0-32.0"},{"rt":3877,"responses":"{\"Q0\":\"Vesper Sparrow\"}","bird":["Vesper Sparrow"],"family":["New World Sparrows and Allies"],"class":["898"],"trial_type":"image-multi-choice","trial_index":34,"time_elapsed":231465,"internal_node_id":"0.0-1.0-33.0"},{"rt":5628,"responses":"{\"Q0\":\"Orange-crowned Warbler\"}","bird":["Orange-crowned Warbler"],"family":["Wood-Warblers"],"class":["867"],"trial_type":"image-multi-choice","trial_index":35,"time_elapsed":238112,"internal_node_id":"0.0-1.0-34.0"},{"rt":3050,"responses":"{\"Q0\":\"White-crowned Sparrow\"}","bird":["White-crowned Sparrow"],"family":["New World Sparrows and Allies"],"class":["766"],"trial_type":"image-multi-choice","trial_index":36,"time_elapsed":242180,"internal_node_id":"0.0-1.0-35.0"},{"rt":3122,"responses":"{\"Q0\":\"Fox Sparrow\"}","bird":["Fox Sparrow"],"family":["New World Sparrows and Allies"],"class":["901"],"trial_type":"image-multi-choice","trial_index":37,"time_elapsed":246327,"internal_node_id":"0.0-1.0-36.0"},{"rt":5507,"responses":"{\"Q0\":\"Swamp Sparrow\"}","bird":["Swamp Sparrow"],"family":["New World Sparrows and Allies"],"class":["904"],"trial_type":"image-multi-choice","trial_index":38,"time_elapsed":252850,"internal_node_id":"0.0-1.0-37.0"},{"rt":3947,"responses":"{\"Q0\":\"Yellow Warbler\"}","bird":["Yellow Warbler"],"family":["Wood-Warblers"],"class":["875"],"trial_type":"image-multi-choice","trial_index":39,"time_elapsed":257812,"internal_node_id":"0.0-1.0-38.0"},{"rt":3533,"responses":"{\"Q0\":\"Black-and-white Warbler\"}","bird":["Black-and-white Warbler"],"family":["Wood-Warblers"],"class":["864"],"trial_type":"image-multi-choice","trial_index":40,"time_elapsed":262361,"internal_node_id":"0.0-1.0-39.0"},{"rt":4737,"responses":"{\"Q0\":\"Fox Sparrow\"}","bird":["Fox Sparrow"],"family":["New World Sparrows and Allies"],"class":["901"],"trial_type":"image-multi-choice","trial_index":41,"time_elapsed":268114,"internal_node_id":"0.0-1.0-40.0"},{"rt":5142,"responses":"{\"Q0\":\"Northern Waterthrush\"}","bird":["Northern Waterthrush"],"family":["Wood-Warblers"],"class":["862"],"trial_type":"image-multi-choice","trial_index":42,"time_elapsed":274271,"internal_node_id":"0.0-1.0-41.0"},{"rt":4852,"responses":"{\"Q0\":\"Nashville Warbler\"}","bird":["Nashville Warbler"],"family":["Wood-Warblers"],"class":["868"],"trial_type":"image-multi-choice","trial_index":43,"time_elapsed":280147,"internal_node_id":"0.0-1.0-42.0"},{"rt":3565,"responses":"{\"Q0\":\"Blackburnian Warbler\"}","bird":["Blackburnian Warbler"],"family":["Wood-Warblers"],"class":["874"],"trial_type":"image-multi-choice","trial_index":44,"time_elapsed":284735,"internal_node_id":"0.0-1.0-43.0"},{"rt":6441,"responses":"{\"Q0\":\"Orange-crowned Warbler\"}","bird":["Orange-crowned Warbler"],"family":["Wood-Warblers"],"class":["867"],"trial_type":"image-multi-choice","trial_index":45,"time_elapsed":292195,"internal_node_id":"0.0-1.0-44.0"},{"rt":3986,"responses":"{\"Q0\":\"Blackburnian Warbler\"}","bird":["Blackburnian Warbler"],"family":["Wood-Warblers"],"class":["874"],"trial_type":"image-multi-choice","trial_index":46,"time_elapsed":297208,"internal_node_id":"0.0-1.0-45.0"},{"rt":4197,"responses":"{\"Q0\":\"Nashville Warbler\"}","bird":["Nashville Warbler"],"family":["Wood-Warblers"],"class":["868"],"trial_type":"image-multi-choice","trial_index":47,"time_elapsed":302432,"internal_node_id":"0.0-1.0-46.0"},{"rt":3329,"responses":"{\"Q0\":\"Northern Waterthrush\"}","bird":["Northern Waterthrush"],"family":["Wood-Warblers"],"class":["862"],"trial_type":"image-multi-choice","trial_index":48,"time_elapsed":306784,"internal_node_id":"0.0-1.0-47.0"},{"rt":3913,"responses":"{\"Q0\":\"Fox Sparrow\"}","bird":["Fox Sparrow"],"family":["New World Sparrows and Allies"],"class":["901"],"trial_type":"image-multi-choice","trial_index":49,"time_elapsed":311724,"internal_node_id":"0.0-1.0-48.0"},{"rt":4376,"responses":"{\"Q0\":\"Swamp Sparrow\"}","bird":["Swamp Sparrow"],"family":["New World Sparrows and Allies"],"class":["904"],"trial_type":"image-multi-choice","trial_index":50,"time_elapsed":317118,"internal_node_id":"0.0-1.0-49.0"},{"rt":4445,"responses":"{\"Q0\":\"Nashville Warbler\"}","bird":["Nashville Warbler"],"family":["Wood-Warblers"],"class":["868"],"trial_type":"image-multi-choice","trial_index":51,"time_elapsed":322584,"internal_node_id":"0.0-1.0-50.0"},{"rt":3198,"responses":"{\"Q0\":\"Black-and-white Warbler\"}","bird":["Black-and-white Warbler"],"family":["Wood-Warblers"],"class":["864"],"trial_type":"image-multi-choice","trial_index":52,"time_elapsed":326798,"internal_node_id":"0.0-1.0-51.0"},{"rt":3767,"responses":"{\"Q0\":\"American Tree Sparrow\"}","bird":["American Tree Sparrow"],"family":["New World Sparrows and Allies"],"class":["894"],"trial_type":"image-multi-choice","trial_index":53,"time_elapsed":331584,"internal_node_id":"0.0-1.0-52.0"},{"rt":3052,"responses":"{\"Q0\":\"Black-and-white Warbler\"}","bird":["Black-and-white Warbler"],"family":["Wood-Warblers"],"class":["864"],"trial_type":"image-multi-choice","trial_index":54,"time_elapsed":335658,"internal_node_id":"0.0-1.0-53.0"},{"rt":44915,"responses":"{\"Q0\":\"Townsend's Warbler\"}","bird":["Townsend's Warbler"],"family":["Wood-Warblers"],"class":["881"],"trial_type":"image-multi-choice","trial_index":55,"time_elapsed":381600,"internal_node_id":"0.0-1.0-54.0"},{"rt":3845,"responses":"{\"Q0\":\"Lark Sparrow\"}","bird":["Lark Sparrow"],"family":["New World Sparrows and Allies"],"class":["899"],"trial_type":"image-multi-choice","trial_index":56,"time_elapsed":386466,"internal_node_id":"0.0-1.0-55.0"},{"rt":3069,"responses":"{\"Q0\":\"Ovenbird\"}","bird":["Ovenbird"],"family":["Wood-Warblers"],"class":["860"],"trial_type":"image-multi-choice","trial_index":57,"time_elapsed":390555,"internal_node_id":"0.0-1.0-56.0"},{"rt":3879,"responses":"{\"Q0\":\"Song Sparrow\"}","bird":["Song Sparrow"],"family":["New World Sparrows and Allies"],"class":["902"],"trial_type":"image-multi-choice","trial_index":58,"time_elapsed":395457,"internal_node_id":"0.0-1.0-57.0"},{"rt":10092,"responses":"{\"Q0\":\"Chipping Sparrow\"}","bird":["Chipping Sparrow"],"family":["New World Sparrows and Allies"],"class":["769"],"trial_type":"image-multi-choice","trial_index":59,"time_elapsed":406574,"internal_node_id":"0.0-1.0-58.0"},{"rt":3234,"responses":"{\"Q0\":\"Black-and-white Warbler\"}","bird":["Black-and-white Warbler"],"family":["Wood-Warblers"],"class":["864"],"trial_type":"image-multi-choice","trial_index":60,"time_elapsed":422412,"internal_node_id":"0.0-1.0-59.0"},{"rt":5873,"responses":"{\"Q0\":\"Chipping Sparrow\"}","bird":["Chipping Sparrow"],"family":["New World Sparrows and Allies"],"class":["769"],"trial_type":"image-multi-choice","trial_index":61,"time_elapsed":429309,"internal_node_id":"0.0-1.0-60.0"},{"rt":4471,"responses":"{\"Q0\":\"Swamp Sparrow\"}","bird":["Swamp Sparrow"],"family":["New World Sparrows and Allies"],"class":["904"],"trial_type":"image-multi-choice","trial_index":62,"time_elapsed":434799,"internal_node_id":"0.0-1.0-61.0"},{"rt":6456,"responses":"{\"Q0\":\"Yellow Warbler\"}","bird":["Nashville Warbler"],"family":["Wood-Warblers"],"class":["868"],"trial_type":"image-multi-choice","trial_index":63,"time_elapsed":442281,"internal_node_id":"0.0-1.0-62.0"},{"rt":4547,"responses":"{\"Q0\":\"Lincoln's Sparrow\"}","bird":["Lincoln's Sparrow"],"family":["New World Sparrows and Allies"],"class":["903"],"trial_type":"image-multi-choice","trial_index":64,"time_elapsed":447851,"internal_node_id":"0.0-1.0-63.0"},{"rt":2884,"responses":"{\"Q0\":\"Black-and-white Warbler\"}","bird":["Black-and-white Warbler"],"family":["Wood-Warblers"],"class":["864"],"trial_type":"image-multi-choice","trial_index":65,"time_elapsed":451749,"internal_node_id":"0.0-1.0-64.0"},{"rt":2857,"responses":"{\"Q0\":\"Fox Sparrow\"}","bird":["Fox Sparrow"],"family":["New World Sparrows and Allies"],"class":["901"],"trial_type":"image-multi-choice","trial_index":66,"time_elapsed":455627,"internal_node_id":"0.0-1.0-65.0"},{"rt":5041,"responses":"{\"Q0\":\"Townsend's Warbler\"}","bird":["Townsend's Warbler"],"family":["Wood-Warblers"],"class":["881"],"trial_type":"image-multi-choice","trial_index":67,"time_elapsed":461694,"internal_node_id":"0.0-1.0-66.0"},{"rt":3702,"responses":"{\"Q0\":\"Yellow Warbler\"}","bird":["Yellow Warbler"],"family":["Wood-Warblers"],"class":["875"],"trial_type":"image-multi-choice","trial_index":68,"time_elapsed":466413,"internal_node_id":"0.0-1.0-67.0"},{"rt":8584,"responses":"{\"Q0\":\"Tennessee Warbler\"}","bird":["Tennessee Warbler"],"family":["Wood-Warblers"],"class":["866"],"trial_type":"image-multi-choice","trial_index":69,"time_elapsed":476011,"internal_node_id":"0.0-1.0-68.0"},{"rt":2986,"responses":"{\"Q0\":\"Ovenbird\"}","bird":["Ovenbird"],"family":["Wood-Warblers"],"class":["860"],"trial_type":"image-multi-choice","trial_index":70,"time_elapsed":480015,"internal_node_id":"0.0-1.0-69.0"},{"rt":5448,"responses":"{\"Q0\":\"Townsend's Warbler\"}","bird":["Townsend's Warbler"],"family":["Wood-Warblers"],"class":["881"],"trial_type":"image-multi-choice","trial_index":71,"time_elapsed":486493,"internal_node_id":"0.0-1.0-70.0"},{"rt":3845,"responses":"{\"Q0\":\"Black-and-white Warbler\"}","bird":["Black-and-white Warbler"],"family":["Wood-Warblers"],"class":["864"],"trial_type":"image-multi-choice","trial_index":72,"time_elapsed":491358,"internal_node_id":"0.0-1.0-71.0"},{"rt":5875,"responses":"{\"Q0\":\"Song Sparrow\"}","bird":["Song Sparrow"],"family":["New World Sparrows and Allies"],"class":["902"],"trial_type":"image-multi-choice","trial_index":73,"time_elapsed":498255,"internal_node_id":"0.0-1.0-72.0"},{"rt":2745,"responses":"{\"Q0\":\"Northern Waterthrush\"}","bird":["Northern Waterthrush"],"family":["Wood-Warblers"],"class":["862"],"trial_type":"image-multi-choice","trial_index":74,"time_elapsed":502014,"internal_node_id":"0.0-1.0-73.0"},{"rt":4746,"responses":"{\"Q0\":\"Swamp Sparrow\"}","bird":["Swamp Sparrow"],"family":["New World Sparrows and Allies"],"class":["904"],"trial_type":"image-multi-choice","trial_index":75,"time_elapsed":507781,"internal_node_id":"0.0-1.0-74.0"},{"rt":2580,"responses":"{\"Q0\":\"White-crowned Sparrow\"}","bird":["White-crowned Sparrow"],"family":["New World Sparrows and Allies"],"class":["766"],"trial_type":"image-multi-choice","trial_index":76,"time_elapsed":511387,"internal_node_id":"0.0-1.0-75.0"},{"rt":3188,"responses":"{\"Q0\":\"White-throated Sparrow\"}","bird":["White-throated Sparrow"],"family":["New World Sparrows and Allies"],"class":["764"],"trial_type":"image-multi-choice","trial_index":77,"time_elapsed":515593,"internal_node_id":"0.0-1.0-76.0"},{"rt":10241,"responses":"{\"Q0\":\"Blackburnian Warbler\"}","bird":["Townsend's Warbler"],"family":["Wood-Warblers"],"class":["881"],"trial_type":"image-multi-choice","trial_index":78,"time_elapsed":526850,"internal_node_id":"0.0-1.0-77.0"},{"rt":3488,"responses":"{\"Q0\":\"Vesper Sparrow\"}","bird":["Vesper Sparrow"],"family":["New World Sparrows and Allies"],"class":["898"],"trial_type":"image-multi-choice","trial_index":79,"time_elapsed":531356,"internal_node_id":"0.0-1.0-78.0"},{"rt":4954,"responses":"{\"Q0\":\"White-throated Sparrow\"}","bird":["White-throated Sparrow"],"family":["New World Sparrows and Allies"],"class":["764"],"trial_type":"image-multi-choice","trial_index":80,"time_elapsed":537330,"internal_node_id":"0.0-1.0-79.0"},{"rt":3388,"responses":"{\"Q0\":\"Northern Waterthrush\"}","bird":["Northern Waterthrush"],"family":["Wood-Warblers"],"class":["862"],"trial_type":"image-multi-choice","trial_index":81,"time_elapsed":541734,"internal_node_id":"0.0-1.0-80.0"},{"rt":4839,"responses":"{\"Q0\":\"Yellow Warbler\"}","bird":["Yellow Warbler"],"family":["Wood-Warblers"],"class":["875"],"trial_type":"image-multi-choice","trial_index":82,"time_elapsed":547589,"internal_node_id":"0.0-1.0-81.0"},{"rt":4920,"responses":"{\"Q0\":\"Nashville Warbler\"}","bird":["Nashville Warbler"],"family":["Wood-Warblers"],"class":["868"],"trial_type":"image-multi-choice","trial_index":83,"time_elapsed":553524,"internal_node_id":"0.0-1.0-82.0"},{"rt":3807,"responses":"{\"Q0\":\"Lark Sparrow\"}","bird":["Lark Sparrow"],"family":["New World Sparrows and Allies"],"class":["899"],"trial_type":"image-multi-choice","trial_index":84,"time_elapsed":558347,"internal_node_id":"0.0-1.0-83.0"},{"rt":5086,"responses":"{\"Q0\":\"Orange-crowned Warbler\"}","bird":["Orange-crowned Warbler"],"family":["Wood-Warblers"],"class":["867"],"trial_type":"image-multi-choice","trial_index":85,"time_elapsed":564451,"internal_node_id":"0.0-1.0-84.0"},{"rt":6222,"responses":"{\"Q0\":\"Nashville Warbler\"}","bird":["Nashville Warbler"],"family":["Wood-Warblers"],"class":["868"],"trial_type":"image-multi-choice","trial_index":86,"time_elapsed":571691,"internal_node_id":"0.0-1.0-85.0"},{"rt":3076,"responses":"{\"Q0\":\"Black-and-white Warbler\"}","bird":["Black-and-white Warbler"],"family":["Wood-Warblers"],"class":["864"],"trial_type":"image-multi-choice","trial_index":87,"time_elapsed":575781,"internal_node_id":"0.0-1.0-86.0"},{"rt":8204,"responses":"{\"Q0\":\"Yellow Warbler\"}","bird":["Nashville Warbler"],"family":["Wood-Warblers"],"class":["868"],"trial_type":"image-multi-choice","trial_index":88,"time_elapsed":585001,"internal_node_id":"0.0-1.0-87.0"},{"rt":3369,"responses":"{\"Q0\":\"Ovenbird\"}","bird":["Ovenbird"],"family":["Wood-Warblers"],"class":["860"],"trial_type":"image-multi-choice","trial_index":89,"time_elapsed":589384,"internal_node_id":"0.0-1.0-88.0"},{"rt":3292,"responses":"{\"Q0\":\"Black-and-white Warbler\"}","bird":["Black-and-white Warbler"],"family":["Wood-Warblers"],"class":["864"],"trial_type":"image-multi-choice","trial_index":90,"time_elapsed":593699,"internal_node_id":"0.0-1.0-89.0"},{"rt":3852,"responses":"{\"Q0\":\"Chipping Sparrow\"}","bird":["Chipping Sparrow"],"family":["New World Sparrows and Allies"],"class":["769"],"trial_type":"image-multi-choice","trial_index":91,"time_elapsed":598573,"internal_node_id":"0.0-1.0-90.0"},{"rt":2961,"responses":"{\"Q0\":\"Tennessee Warbler\"}","bird":["Tennessee Warbler"],"family":["Wood-Warblers"],"class":["866"],"trial_type":"image-multi-choice","trial_index":92,"time_elapsed":602552,"internal_node_id":"0.0-1.0-91.0"},{"rt":3098,"responses":"{\"Q0\":\"White-throated Sparrow\"}","bird":["White-throated Sparrow"],"family":["New World Sparrows and Allies"],"class":["764"],"trial_type":"image-multi-choice","trial_index":93,"time_elapsed":606677,"internal_node_id":"0.0-1.0-92.0"},{"rt":3388,"responses":"{\"Q0\":\"Song Sparrow\"}","bird":["Song Sparrow"],"family":["New World Sparrows and Allies"],"class":["902"],"trial_type":"image-multi-choice","trial_index":94,"time_elapsed":611081,"internal_node_id":"0.0-1.0-93.0"},{"rt":3805,"responses":"{\"Q0\":\"Blackburnian Warbler\"}","bird":["Blackburnian Warbler"],"family":["Wood-Warblers"],"class":["874"],"trial_type":"image-multi-choice","trial_index":95,"time_elapsed":615910,"internal_node_id":"0.0-1.0-94.0"},{"rt":3446,"responses":"{\"Q0\":\"American Tree Sparrow\"}","bird":["American Tree Sparrow"],"family":["New World Sparrows and Allies"],"class":["894"],"trial_type":"image-multi-choice","trial_index":96,"time_elapsed":620380,"internal_node_id":"0.0-1.0-95.0"},{"rt":2283,"responses":"{\"Q0\":\"White-throated Sparrow\"}","bird":["White-throated Sparrow"],"family":["New World Sparrows and Allies"],"class":["764"],"trial_type":"image-multi-choice","trial_index":97,"time_elapsed":623686,"internal_node_id":"0.0-1.0-96.0"},{"rt":7405,"responses":"{\"Q0\":\"Orange-crowned Warbler\"}","bird":["Orange-crowned Warbler"],"family":["Wood-Warblers"],"class":["867"],"trial_type":"image-multi-choice","trial_index":98,"time_elapsed":632119,"internal_node_id":"0.0-1.0-97.0"},{"rt":2479,"responses":"{\"Q0\":\"Yellow Warbler\"}","bird":["Yellow Warbler"],"family":["Wood-Warblers"],"class":["875"],"trial_type":"image-multi-choice","trial_index":99,"time_elapsed":635616,"internal_node_id":"0.0-1.0-98.0"},{"rt":3088,"responses":"{\"Q0\":\"Fox Sparrow\"}","bird":["Fox Sparrow"],"family":["New World Sparrows and Allies"],"class":["901"],"trial_type":"image-multi-choice","trial_index":100,"time_elapsed":639719,"internal_node_id":"0.0-1.0-99.0"},{"rt":3268,"responses":"{\"Q0\":\"Chipping Sparrow\"}","bird":["Chipping Sparrow"],"family":["New World Sparrows and Allies"],"class":["769"],"trial_type":"image-multi-choice","trial_index":101,"time_elapsed":644013,"internal_node_id":"0.0-1.0-100.0"},{"rt":3168,"responses":"{\"Q0\":\"Northern Waterthrush\"}","bird":["Northern Waterthrush"],"family":["Wood-Warblers"],"class":["862"],"trial_type":"image-multi-choice","trial_index":102,"time_elapsed":648198,"internal_node_id":"0.0-1.0-101.0"},{"rt":3431,"responses":"{\"Q0\":\"Swamp Sparrow\"}","bird":["Swamp Sparrow"],"family":["New World Sparrows and Allies"],"class":["904"],"trial_type":"image-multi-choice","trial_index":103,"time_elapsed":652647,"internal_node_id":"0.0-1.0-102.0"},{"rt":2565,"responses":"{\"Q0\":\"Northern Waterthrush\"}","bird":["Northern Waterthrush"],"family":["Wood-Warblers"],"class":["862"],"trial_type":"image-multi-choice","trial_index":104,"time_elapsed":656237,"internal_node_id":"0.0-1.0-103.0"},{"rt":2339,"responses":"{\"Q0\":\"Yellow Warbler\"}","bird":["Yellow Warbler"],"family":["Wood-Warblers"],"class":["875"],"trial_type":"image-multi-choice","trial_index":105,"time_elapsed":659600,"internal_node_id":"0.0-1.0-104.0"},{"rt":3237,"responses":"{\"Q0\":\"Magnolia Warbler\"}","bird":["Magnolia Warbler"],"family":["Wood-Warblers"],"class":["758"],"trial_type":"image-multi-choice","trial_index":106,"time_elapsed":663852,"internal_node_id":"0.0-1.0-105.0"},{"rt":4510,"responses":"{\"Q0\":\"Townsend's Warbler\"}","bird":["Townsend's Warbler"],"family":["Wood-Warblers"],"class":["881"],"trial_type":"image-multi-choice","trial_index":107,"time_elapsed":669376,"internal_node_id":"0.0-1.0-106.0"},{"rt":3830,"responses":"{\"Q0\":\"Swamp Sparrow\"}","bird":["Swamp Sparrow"],"family":["New World Sparrows and Allies"],"class":["904"],"trial_type":"image-multi-choice","trial_index":108,"time_elapsed":674220,"internal_node_id":"0.0-1.0-107.0"},{"rt":3736,"responses":"{\"Q0\":\"Fox Sparrow\"}","bird":["Fox Sparrow"],"family":["New World Sparrows and Allies"],"class":["901"],"trial_type":"image-multi-choice","trial_index":109,"time_elapsed":678976,"internal_node_id":"0.0-1.0-108.0"},{"rt":2283,"responses":"{\"Q0\":\"Yellow Warbler\"}","bird":["Yellow Warbler"],"family":["Wood-Warblers"],"class":["875"],"trial_type":"image-multi-choice","trial_index":110,"time_elapsed":682281,"internal_node_id":"0.0-1.0-109.0"},{"rt":3493,"responses":"{\"Q0\":\"Lincoln's Sparrow\"}","bird":["Lincoln's Sparrow"],"family":["New World Sparrows and Allies"],"class":["903"],"trial_type":"image-multi-choice","trial_index":111,"time_elapsed":686795,"internal_node_id":"0.0-1.0-110.0"},{"rt":5921,"responses":"{\"Q0\":\"Townsend's Warbler\"}","bird":["Townsend's Warbler"],"family":["Wood-Warblers"],"class":["881"],"trial_type":"image-multi-choice","trial_index":112,"time_elapsed":693735,"internal_node_id":"0.0-1.0-111.0"},{"rt":2820,"responses":"{\"Q0\":\"White-crowned Sparrow\"}","bird":["White-crowned Sparrow"],"family":["New World Sparrows and Allies"],"class":["766"],"trial_type":"image-multi-choice","trial_index":113,"time_elapsed":697582,"internal_node_id":"0.0-1.0-112.0"},{"rt":6470,"responses":"{\"Q0\":\"Blackburnian Warbler\"}","bird":["Blackburnian Warbler"],"family":["Wood-Warblers"],"class":["874"],"trial_type":"image-multi-choice","trial_index":114,"time_elapsed":705079,"internal_node_id":"0.0-1.0-113.0"},{"rt":4184,"responses":"{\"Q0\":\"Orange-crowned Warbler\"}","bird":["Nashville Warbler"],"family":["Wood-Warblers"],"class":["868"],"trial_type":"image-multi-choice","trial_index":115,"time_elapsed":710282,"internal_node_id":"0.0-1.0-114.0"},{"rt":5792,"responses":"{\"Q0\":\"Tennessee Warbler\"}","bird":["Tennessee Warbler"],"family":["Wood-Warblers"],"class":["866"],"trial_type":"image-multi-choice","trial_index":116,"time_elapsed":717098,"internal_node_id":"0.0-1.0-115.0"},{"rt":2855,"responses":"{\"Q0\":\"Vesper Sparrow\"}","bird":["Vesper Sparrow"],"family":["New World Sparrows and Allies"],"class":["898"],"trial_type":"image-multi-choice","trial_index":117,"time_elapsed":720972,"internal_node_id":"0.0-1.0-116.0"},{"rt":7969,"responses":"{\"Q0\":\"Swamp Sparrow\"}","bird":["Swamp Sparrow"],"family":["New World Sparrows and Allies"],"class":["904"],"trial_type":"image-multi-choice","trial_index":118,"time_elapsed":729960,"internal_node_id":"0.0-1.0-117.0"},{"rt":3117,"responses":"{\"Q0\":\"White-crowned Sparrow\"}","bird":["White-crowned Sparrow"],"family":["New World Sparrows and Allies"],"class":["766"],"trial_type":"image-multi-choice","trial_index":119,"time_elapsed":734093,"internal_node_id":"0.0-1.0-118.0"},{"rt":4837,"responses":"{\"Q0\":\"Blackburnian Warbler\"}","bird":["Blackburnian Warbler"],"family":["Wood-Warblers"],"class":["874"],"trial_type":"image-multi-choice","trial_index":120,"time_elapsed":743361,"internal_node_id":"0.0-1.0-119.0"},{"rt":4871,"responses":"{\"Q0\":\"Fox Sparrow\"}","bird":["Fox Sparrow"],"family":["New World Sparrows and Allies"],"class":["901"],"trial_type":"image-multi-choice","trial_index":121,"time_elapsed":749248,"internal_node_id":"0.0-1.0-120.0"},{"rt":2987,"responses":"{\"Q0\":\"Vesper Sparrow\"}","bird":["Vesper Sparrow"],"family":["New World Sparrows and Allies"],"class":["898"],"trial_type":"image-multi-choice","trial_index":122,"time_elapsed":753264,"internal_node_id":"0.0-1.0-121.0"},{"rt":2997,"responses":"{\"Q0\":\"Yellow Warbler\"}","bird":["Yellow Warbler"],"family":["Wood-Warblers"],"class":["875"],"trial_type":"image-multi-choice","trial_index":123,"time_elapsed":757279,"internal_node_id":"0.0-1.0-122.0"},{"rt":6982,"responses":"{\"Q0\":\"Vesper Sparrow\"}","bird":["Song Sparrow"],"family":["New World Sparrows and Allies"],"class":["902"],"trial_type":"image-multi-choice","trial_index":124,"time_elapsed":765282,"internal_node_id":"0.0-1.0-123.0"},{"rt":7434,"responses":"{\"Q0\":\"Townsend's Warbler\"}","bird":["Townsend's Warbler"],"family":["Wood-Warblers"],"class":["881"],"trial_type":"image-multi-choice","trial_index":125,"time_elapsed":773732,"internal_node_id":"0.0-1.0-124.0"},{"rt":2448,"responses":"{\"Q0\":\"White-crowned Sparrow\"}","bird":["White-crowned Sparrow"],"family":["New World Sparrows and Allies"],"class":["766"],"trial_type":"image-multi-choice","trial_index":126,"time_elapsed":777198,"internal_node_id":"0.0-1.0-125.0"},{"rt":3508,"responses":"{\"Q0\":\"Song Sparrow\"}","bird":["Song Sparrow"],"family":["New World Sparrows and Allies"],"class":["902"],"trial_type":"image-multi-choice","trial_index":127,"time_elapsed":781728,"internal_node_id":"0.0-1.0-126.0"},{"rt":3528,"responses":"{\"Q0\":\"Ovenbird\"}","bird":["Ovenbird"],"family":["Wood-Warblers"],"class":["860"],"trial_type":"image-multi-choice","trial_index":128,"time_elapsed":786271,"internal_node_id":"0.0-1.0-127.0"},{"rt":2796,"responses":"{\"Q0\":\"Magnolia Warbler\"}","bird":["Magnolia Warbler"],"family":["Wood-Warblers"],"class":["758"],"trial_type":"image-multi-choice","trial_index":129,"time_elapsed":790096,"internal_node_id":"0.0-1.0-128.0"},{"rt":3366,"responses":"{\"Q0\":\"Swamp Sparrow\"}","bird":["Swamp Sparrow"],"family":["New World Sparrows and Allies"],"class":["904"],"trial_type":"image-multi-choice","trial_index":130,"time_elapsed":794478,"internal_node_id":"0.0-1.0-129.0"},{"rt":4273,"responses":"{\"Q0\":\"Lark Sparrow\"}","bird":["Lark Sparrow"],"family":["New World Sparrows and Allies"],"class":["899"],"trial_type":"image-multi-choice","trial_index":131,"time_elapsed":799778,"internal_node_id":"0.0-1.0-130.0"},{"rt":3528,"responses":"{\"Q0\":\"Magnolia Warbler\"}","bird":["Magnolia Warbler"],"family":["Wood-Warblers"],"class":["758"],"trial_type":"image-multi-choice","trial_index":132,"time_elapsed":804321,"internal_node_id":"0.0-1.0-131.0"},{"rt":19719,"responses":"{\"Q0\":\"White-throated Sparrow\"}","bird":["White-throated Sparrow"],"family":["New World Sparrows and Allies"],"class":["764"],"trial_type":"image-multi-choice","trial_index":133,"time_elapsed":825065,"internal_node_id":"0.0-1.0-132.0"},{"rt":3696,"responses":"{\"Q0\":\"Magnolia Warbler\"}","bird":["Magnolia Warbler"],"family":["Wood-Warblers"],"class":["758"],"trial_type":"image-multi-choice","trial_index":134,"time_elapsed":829783,"internal_node_id":"0.0-1.0-133.0"},{"rt":3274,"responses":"{\"Q0\":\"Yellow Warbler\"}","bird":["Yellow Warbler"],"family":["Wood-Warblers"],"class":["875"],"trial_type":"image-multi-choice","trial_index":135,"time_elapsed":834071,"internal_node_id":"0.0-1.0-134.0"},{"rt":4108,"responses":"{\"Q0\":\"Tennessee Warbler\"}","bird":["Tennessee Warbler"],"family":["Wood-Warblers"],"class":["866"],"trial_type":"image-multi-choice","trial_index":136,"time_elapsed":839208,"internal_node_id":"0.0-1.0-135.0"},{"rt":2813,"responses":"{\"Q0\":\"Ovenbird\"}","bird":["Ovenbird"],"family":["Wood-Warblers"],"class":["860"],"trial_type":"image-multi-choice","trial_index":137,"time_elapsed":843041,"internal_node_id":"0.0-1.0-136.0"},{"rt":3066,"responses":"{\"Q0\":\"Black-and-white Warbler\"}","bird":["Black-and-white Warbler"],"family":["Wood-Warblers"],"class":["864"],"trial_type":"image-multi-choice","trial_index":138,"time_elapsed":847123,"internal_node_id":"0.0-1.0-137.0"},{"rt":3672,"responses":"{\"Q0\":\"Chipping Sparrow\"}","bird":["Chipping Sparrow"],"family":["New World Sparrows and Allies"],"class":["769"],"trial_type":"image-multi-choice","trial_index":139,"time_elapsed":851813,"internal_node_id":"0.0-1.0-138.0"},{"rt":2992,"responses":"{\"Q0\":\"Northern Waterthrush\"}","bird":["Northern Waterthrush"],"family":["Wood-Warblers"],"class":["862"],"trial_type":"image-multi-choice","trial_index":140,"time_elapsed":855822,"internal_node_id":"0.0-1.0-139.0"},{"rt":2554,"responses":"{\"Q0\":\"Vesper Sparrow\"}","bird":["Vesper Sparrow"],"family":["New World Sparrows and Allies"],"class":["898"],"trial_type":"image-multi-choice","trial_index":141,"time_elapsed":859391,"internal_node_id":"0.0-1.0-140.0"},{"rt":2601,"responses":"{\"Q0\":\"White-throated Sparrow\"}","bird":["White-throated Sparrow"],"family":["New World Sparrows and Allies"],"class":["764"],"trial_type":"image-multi-choice","trial_index":142,"time_elapsed":863019,"internal_node_id":"0.0-1.0-141.0"},{"rt":3110,"responses":"{\"Q0\":\"Magnolia Warbler\"}","bird":["Magnolia Warbler"],"family":["Wood-Warblers"],"class":["758"],"trial_type":"image-multi-choice","trial_index":143,"time_elapsed":867151,"internal_node_id":"0.0-1.0-142.0"},{"rt":3863,"responses":"{\"Q0\":\"Blackburnian Warbler\"}","bird":["Blackburnian Warbler"],"family":["Wood-Warblers"],"class":["874"],"trial_type":"image-multi-choice","trial_index":144,"time_elapsed":872032,"internal_node_id":"0.0-1.0-143.0"},{"rt":2944,"responses":"{\"Q0\":\"Lark Sparrow\"}","bird":["Lark Sparrow"],"family":["New World Sparrows and Allies"],"class":["899"],"trial_type":"image-multi-choice","trial_index":145,"time_elapsed":876004,"internal_node_id":"0.0-1.0-144.0"},{"rt":5967,"responses":"{\"Q0\":\"Song Sparrow\"}","bird":["Song Sparrow"],"family":["New World Sparrows and Allies"],"class":["902"],"trial_type":"image-multi-choice","trial_index":146,"time_elapsed":882988,"internal_node_id":"0.0-1.0-145.0"},{"rt":3075,"responses":"{\"Q0\":\"White-crowned Sparrow\"}","bird":["White-crowned Sparrow"],"family":["New World Sparrows and Allies"],"class":["766"],"trial_type":"image-multi-choice","trial_index":147,"time_elapsed":887078,"internal_node_id":"0.0-1.0-146.0"},{"rt":8680,"responses":"{\"Q0\":\"Song Sparrow\"}","bird":["Chipping Sparrow"],"family":["New World Sparrows and Allies"],"class":["769"],"trial_type":"image-multi-choice","trial_index":148,"time_elapsed":896772,"internal_node_id":"0.0-1.0-147.0"},{"rt":9957,"responses":"{\"Q0\":\"Swamp Sparrow\"}","bird":["Swamp Sparrow"],"family":["New World Sparrows and Allies"],"class":["904"],"trial_type":"image-multi-choice","trial_index":149,"time_elapsed":907749,"internal_node_id":"0.0-1.0-148.0"},{"rt":3299,"responses":"{\"Q0\":\"Fox Sparrow\"}","bird":["Fox Sparrow"],"family":["New World Sparrows and Allies"],"class":["901"],"trial_type":"image-multi-choice","trial_index":150,"time_elapsed":912061,"internal_node_id":"0.0-1.0-149.0"},{"rt":2819,"responses":"{\"Q0\":\"Yellow Warbler\"}","bird":["Yellow Warbler"],"family":["Wood-Warblers"],"class":["875"],"trial_type":"image-multi-choice","trial_index":151,"time_elapsed":915898,"internal_node_id":"0.0-1.0-150.0"},{"rt":2447,"responses":"{\"Q0\":\"White-crowned Sparrow\"}","bird":["White-crowned Sparrow"],"family":["New World Sparrows and Allies"],"class":["766"],"trial_type":"image-multi-choice","trial_index":152,"time_elapsed":919371,"internal_node_id":"0.0-1.0-151.0"},{"rt":4034,"responses":"{\"Q0\":\"Song Sparrow\"}","bird":["Song Sparrow"],"family":["New World Sparrows and Allies"],"class":["902"],"trial_type":"image-multi-choice","trial_index":153,"time_elapsed":924428,"internal_node_id":"0.0-1.0-152.0"},{"rt":2873,"responses":"{\"Q0\":\"Northern Waterthrush\"}","bird":["Northern Waterthrush"],"family":["Wood-Warblers"],"class":["862"],"trial_type":"image-multi-choice","trial_index":154,"time_elapsed":928319,"internal_node_id":"0.0-1.0-153.0"},{"rt":2280,"responses":"{\"Q0\":\"White-crowned Sparrow\"}","bird":["White-crowned Sparrow"],"family":["New World Sparrows and Allies"],"class":["766"],"trial_type":"image-multi-choice","trial_index":155,"time_elapsed":931624,"internal_node_id":"0.0-1.0-154.0"},{"rt":2861,"responses":"{\"Q0\":\"Yellow Warbler\"}","bird":["Yellow Warbler"],"family":["Wood-Warblers"],"class":["875"],"trial_type":"image-multi-choice","trial_index":156,"time_elapsed":935500,"internal_node_id":"0.0-1.0-155.0"},{"rt":3486,"responses":"{\"Q0\":\"White-throated Sparrow\"}","bird":["White-throated Sparrow"],"family":["New World Sparrows and Allies"],"class":["764"],"trial_type":"image-multi-choice","trial_index":157,"time_elapsed":940000,"internal_node_id":"0.0-1.0-156.0"},{"rt":2658,"responses":"{\"Q0\":\"White-crowned Sparrow\"}","bird":["White-crowned Sparrow"],"family":["New World Sparrows and Allies"],"class":["766"],"trial_type":"image-multi-choice","trial_index":158,"time_elapsed":943673,"internal_node_id":"0.0-1.0-157.0"},{"rt":3400,"responses":"{\"Q0\":\"Townsend's Warbler\"}","bird":["Townsend's Warbler"],"family":["Wood-Warblers"],"class":["881"],"trial_type":"image-multi-choice","trial_index":159,"time_elapsed":948098,"internal_node_id":"0.0-1.0-158.0"},{"rt":6780,"responses":"{\"Q0\":\"Tennessee Warbler\"}","bird":["Tennessee Warbler"],"family":["Wood-Warblers"],"class":["866"],"trial_type":"image-multi-choice","trial_index":160,"time_elapsed":955897,"internal_node_id":"0.0-1.0-159.0"},{"rt":2280,"responses":"{\"Q0\":\"White-throated Sparrow\"}","bird":["White-throated Sparrow"],"family":["New World Sparrows and Allies"],"class":["764"],"trial_type":"image-multi-choice","trial_index":161,"time_elapsed":959195,"internal_node_id":"0.0-1.0-160.0"},{"rt":3391,"responses":"{\"Q0\":\"Fox Sparrow\"}","bird":["Fox Sparrow"],"family":["New World Sparrows and Allies"],"class":["901"],"trial_type":"image-multi-choice","trial_index":162,"time_elapsed":963614,"internal_node_id":"0.0-1.0-161.0"},{"rt":3311,"responses":"{\"Q0\":\"Song Sparrow\"}","bird":["Song Sparrow"],"family":["New World Sparrows and Allies"],"class":["902"],"trial_type":"image-multi-choice","trial_index":163,"time_elapsed":967945,"internal_node_id":"0.0-1.0-162.0"},{"rt":2520,"responses":"{\"Q0\":\"White-crowned Sparrow\"}","bird":["White-crowned Sparrow"],"family":["New World Sparrows and Allies"],"class":["766"],"trial_type":"image-multi-choice","trial_index":164,"time_elapsed":971492,"internal_node_id":"0.0-1.0-163.0"},{"rt":5220,"responses":"{\"Q0\":\"Song Sparrow\"}","bird":["Song Sparrow"],"family":["New World Sparrows and Allies"],"class":["902"],"trial_type":"image-multi-choice","trial_index":165,"time_elapsed":977729,"internal_node_id":"0.0-1.0-164.0"},{"rt":6556,"responses":"{\"Q0\":\"American Tree Sparrow\"}","bird":["American Tree Sparrow"],"family":["New World Sparrows and Allies"],"class":["894"],"trial_type":"image-multi-choice","trial_index":166,"time_elapsed":985301,"internal_node_id":"0.0-1.0-165.0"},{"rt":5586,"responses":"{\"Q0\":\"Orange-crowned Warbler\"}","bird":["Orange-crowned Warbler"],"family":["Wood-Warblers"],"class":["867"],"trial_type":"image-multi-choice","trial_index":167,"time_elapsed":991903,"internal_node_id":"0.0-1.0-166.0"},{"rt":4525,"responses":"{\"Q0\":\"Lincoln's Sparrow\"}","bird":["Lincoln's Sparrow"],"family":["New World Sparrows and Allies"],"class":["903"],"trial_type":"image-multi-choice","trial_index":168,"time_elapsed":997443,"internal_node_id":"0.0-1.0-167.0"},{"rt":3375,"responses":"{\"Q0\":\"Blackburnian Warbler\"}","bird":["Blackburnian Warbler"],"family":["Wood-Warblers"],"class":["874"],"trial_type":"image-multi-choice","trial_index":169,"time_elapsed":1001842,"internal_node_id":"0.0-1.0-168.0"},{"rt":2482,"responses":"{\"Q0\":\"White-throated Sparrow\"}","bird":["White-throated Sparrow"],"family":["New World Sparrows and Allies"],"class":["764"],"trial_type":"image-multi-choice","trial_index":170,"time_elapsed":1005352,"internal_node_id":"0.0-1.0-169.0"},{"rt":3306,"responses":"{\"Q0\":\"Fox Sparrow\"}","bird":["Fox Sparrow"],"family":["New World Sparrows and Allies"],"class":["901"],"trial_type":"image-multi-choice","trial_index":171,"time_elapsed":1009684,"internal_node_id":"0.0-1.0-170.0"},{"rt":3785,"responses":"{\"Q0\":\"Chipping Sparrow\"}","bird":["Chipping Sparrow"],"family":["New World Sparrows and Allies"],"class":["769"],"trial_type":"image-multi-choice","trial_index":172,"time_elapsed":1014491,"internal_node_id":"0.0-1.0-171.0"},{"rt":4846,"responses":"{\"Q0\":\"Swamp Sparrow\"}","bird":["Swamp Sparrow"],"family":["New World Sparrows and Allies"],"class":["904"],"trial_type":"image-multi-choice","trial_index":173,"time_elapsed":1020355,"internal_node_id":"0.0-1.0-172.0"},{"rt":3167,"responses":"{\"Q0\":\"Lincoln's Sparrow\"}","bird":["Lincoln's Sparrow"],"family":["New World Sparrows and Allies"],"class":["903"],"trial_type":"image-multi-choice","trial_index":174,"time_elapsed":1024547,"internal_node_id":"0.0-1.0-173.0"},{"rt":3349,"responses":"{\"Q0\":\"Swamp Sparrow\"}","bird":["Swamp Sparrow"],"family":["New World Sparrows and Allies"],"class":["904"],"trial_type":"image-multi-choice","trial_index":175,"time_elapsed":1028921,"internal_node_id":"0.0-1.0-174.0"},{"rt":3798,"responses":"{\"Q0\":\"Townsend's Warbler\"}","bird":["Townsend's Warbler"],"family":["Wood-Warblers"],"class":["881"],"trial_type":"image-multi-choice","trial_index":176,"time_elapsed":1033744,"internal_node_id":"0.0-1.0-175.0"},{"rt":3964,"responses":"{\"Q0\":\"American Tree Sparrow\"}","bird":["American Tree Sparrow"],"family":["New World Sparrows and Allies"],"class":["894"],"trial_type":"image-multi-choice","trial_index":177,"time_elapsed":1038735,"internal_node_id":"0.0-1.0-176.0"},{"rt":3154,"responses":"{\"Q0\":\"Fox Sparrow\"}","bird":["Fox Sparrow"],"family":["New World Sparrows and Allies"],"class":["901"],"trial_type":"image-multi-choice","trial_index":178,"time_elapsed":1042905,"internal_node_id":"0.0-1.0-177.0"},{"rt":7074,"responses":"{\"Q0\":\"Lincoln's Sparrow\"}","bird":["Lincoln's Sparrow"],"family":["New World Sparrows and Allies"],"class":["903"],"trial_type":"image-multi-choice","trial_index":179,"time_elapsed":1050995,"internal_node_id":"0.0-1.0-178.0"},{"rt":3017,"responses":"{\"Q0\":\"Magnolia Warbler\"}","bird":["Magnolia Warbler"],"family":["Wood-Warblers"],"class":["758"],"trial_type":"image-multi-choice","trial_index":180,"time_elapsed":1059392,"internal_node_id":"0.0-1.0-179.0"},{"rt":8124,"responses":"{\"Q0\":\"Tennessee Warbler\"}","bird":["Orange-crowned Warbler"],"family":["Wood-Warblers"],"class":["867"],"trial_type":"image-multi-choice","trial_index":181,"time_elapsed":1068534,"internal_node_id":"0.0-1.0-180.0"},{"rt":10408,"responses":"{\"Q0\":\"Tennessee Warbler\"}","bird":["Tennessee Warbler"],"family":["Wood-Warblers"],"class":["866"],"trial_type":"image-multi-choice","trial_index":182,"time_elapsed":1079965,"internal_node_id":"0.0-1.0-181.0"},{"rt":2915,"responses":"{\"Q0\":\"Vesper Sparrow\"}","bird":["Vesper Sparrow"],"family":["New World Sparrows and Allies"],"class":["898"],"trial_type":"image-multi-choice","trial_index":183,"time_elapsed":1083901,"internal_node_id":"0.0-1.0-182.0"},{"rt":2983,"responses":"{\"Q0\":\"Blackburnian Warbler\"}","bird":["Blackburnian Warbler"],"family":["Wood-Warblers"],"class":["874"],"trial_type":"image-multi-choice","trial_index":184,"time_elapsed":1087902,"internal_node_id":"0.0-1.0-183.0"},{"rt":3428,"responses":"{\"Q0\":\"Lincoln's Sparrow\"}","bird":["Lincoln's Sparrow"],"family":["New World Sparrows and Allies"],"class":["903"],"trial_type":"image-multi-choice","trial_index":185,"time_elapsed":1092351,"internal_node_id":"0.0-1.0-184.0"},{"rt":4601,"responses":"{\"Q0\":\"Townsend's Warbler\"}","bird":["Townsend's Warbler"],"family":["Wood-Warblers"],"class":["881"],"trial_type":"image-multi-choice","trial_index":186,"time_elapsed":1097965,"internal_node_id":"0.0-1.0-185.0"},{"rt":10978,"responses":"{\"Q0\":\"Ovenbird\"}","bird":["Ovenbird"],"family":["Wood-Warblers"],"class":["860"],"trial_type":"image-multi-choice","trial_index":187,"time_elapsed":1109962,"internal_node_id":"0.0-1.0-186.0"},{"rt":4872,"responses":"{\"Q0\":\"Orange-crowned Warbler\"}","bird":["Orange-crowned Warbler"],"family":["Wood-Warblers"],"class":["867"],"trial_type":"image-multi-choice","trial_index":188,"time_elapsed":1115862,"internal_node_id":"0.0-1.0-187.0"},{"rt":3573,"responses":"{\"Q0\":\"Chipping Sparrow\"}","bird":["Chipping Sparrow"],"family":["New World Sparrows and Allies"],"class":["769"],"trial_type":"image-multi-choice","trial_index":189,"time_elapsed":1120457,"internal_node_id":"0.0-1.0-188.0"},{"rt":3201,"responses":"{\"Q0\":\"American Tree Sparrow\"}","bird":["American Tree Sparrow"],"family":["New World Sparrows and Allies"],"class":["894"],"trial_type":"image-multi-choice","trial_index":190,"time_elapsed":1124677,"internal_node_id":"0.0-1.0-189.0"},{"rt":6353,"responses":"{\"Q0\":\"Song Sparrow\"}","bird":["Vesper Sparrow"],"family":["New World Sparrows and Allies"],"class":["898"],"trial_type":"image-multi-choice","trial_index":191,"time_elapsed":1132058,"internal_node_id":"0.0-1.0-190.0"},{"rt":3820,"responses":"{\"Q0\":\"Lincoln's Sparrow\"}","bird":["Lincoln's Sparrow"],"family":["New World Sparrows and Allies"],"class":["903"],"trial_type":"image-multi-choice","trial_index":192,"time_elapsed":1136902,"internal_node_id":"0.0-1.0-191.0"},{"rt":3787,"responses":"{\"Q0\":\"Tennessee Warbler\"}","bird":["Tennessee Warbler"],"family":["Wood-Warblers"],"class":["866"],"trial_type":"image-multi-choice","trial_index":193,"time_elapsed":1141710,"internal_node_id":"0.0-1.0-192.0"},{"rt":2785,"responses":"{\"Q0\":\"American Tree Sparrow\"}","bird":["American Tree Sparrow"],"family":["New World Sparrows and Allies"],"class":["894"],"trial_type":"image-multi-choice","trial_index":194,"time_elapsed":1145514,"internal_node_id":"0.0-1.0-193.0"},{"rt":3300,"responses":"{\"Q0\":\"Lark Sparrow\"}","bird":["Lark Sparrow"],"family":["New World Sparrows and Allies"],"class":["899"],"trial_type":"image-multi-choice","trial_index":195,"time_elapsed":1149837,"internal_node_id":"0.0-1.0-194.0"},{"rt":6384,"responses":"{\"Q0\":\"Tennessee Warbler\"}","bird":["Tennessee Warbler"],"family":["Wood-Warblers"],"class":["866"],"trial_type":"image-multi-choice","trial_index":196,"time_elapsed":1157245,"internal_node_id":"0.0-1.0-195.0"},{"rt":3893,"responses":"{\"Q0\":\"Northern Waterthrush\"}","bird":["Northern Waterthrush"],"family":["Wood-Warblers"],"class":["862"],"trial_type":"image-multi-choice","trial_index":197,"time_elapsed":1162155,"internal_node_id":"0.0-1.0-196.0"},{"rt":2550,"responses":"{\"Q0\":\"White-throated Sparrow\"}","bird":["White-throated Sparrow"],"family":["New World Sparrows and Allies"],"class":["764"],"trial_type":"image-multi-choice","trial_index":198,"time_elapsed":1165724,"internal_node_id":"0.0-1.0-197.0"},{"rt":2500,"responses":"{\"Q0\":\"Yellow Warbler\"}","bird":["Yellow Warbler"],"family":["Wood-Warblers"],"class":["875"],"trial_type":"image-multi-choice","trial_index":199,"time_elapsed":1169241,"internal_node_id":"0.0-1.0-198.0"},{"rt":2382,"responses":"{\"Q0\":\"White-crowned Sparrow\"}","bird":["White-crowned Sparrow"],"family":["New World Sparrows and Allies"],"class":["766"],"trial_type":"image-multi-choice","trial_index":200,"time_elapsed":1172648,"internal_node_id":"0.0-1.0-199.0"},{"rt":4865,"responses":"{\"Q0\":\"American Tree Sparrow\"}","bird":["American Tree Sparrow"],"family":["New World Sparrows and Allies"],"class":["894"],"trial_type":"image-multi-choice","trial_index":201,"time_elapsed":1178540,"internal_node_id":"0.0-1.0-200.0"},{"rt":3350,"responses":"{\"Q0\":\"Ovenbird\"}","bird":["Ovenbird"],"family":["Wood-Warblers"],"class":["860"],"trial_type":"image-multi-choice","trial_index":202,"time_elapsed":1182907,"internal_node_id":"0.0-1.0-201.0"},{"rt":3117,"responses":"{\"Q0\":\"Magnolia Warbler\"}","bird":["Magnolia Warbler"],"family":["Wood-Warblers"],"class":["758"],"trial_type":"image-multi-choice","trial_index":203,"time_elapsed":1187047,"internal_node_id":"0.0-1.0-202.0"},{"rt":2983,"responses":"{\"Q0\":\"Black-and-white Warbler\"}","bird":["Black-and-white Warbler"],"family":["Wood-Warblers"],"class":["864"],"trial_type":"image-multi-choice","trial_index":204,"time_elapsed":1191048,"internal_node_id":"0.0-1.0-203.0"},{"rt":3500,"responses":"{\"Q0\":\"Northern Waterthrush\"}","bird":["Northern Waterthrush"],"family":["Wood-Warblers"],"class":["862"],"trial_type":"image-multi-choice","trial_index":205,"time_elapsed":1195569,"internal_node_id":"0.0-1.0-204.0"},{"rt":3063,"responses":"{\"Q0\":\"American Tree Sparrow\"}","bird":["American Tree Sparrow"],"family":["New World Sparrows and Allies"],"class":["894"],"trial_type":"image-multi-choice","trial_index":206,"time_elapsed":1199658,"internal_node_id":"0.0-1.0-205.0"},{"rt":3016,"responses":"{\"Q0\":\"Magnolia Warbler\"}","bird":["Magnolia Warbler"],"family":["Wood-Warblers"],"class":["758"],"trial_type":"image-multi-choice","trial_index":207,"time_elapsed":1203694,"internal_node_id":"0.0-1.0-206.0"},{"rt":7170,"responses":"{\"Q0\":\"Blackburnian Warbler\"}","bird":["Blackburnian Warbler"],"family":["Wood-Warblers"],"class":["874"],"trial_type":"image-multi-choice","trial_index":208,"time_elapsed":1211879,"internal_node_id":"0.0-1.0-207.0"},{"rt":3279,"responses":"{\"Q0\":\"Swamp Sparrow\"}","bird":["Swamp Sparrow"],"family":["New World Sparrows and Allies"],"class":["904"],"trial_type":"image-multi-choice","trial_index":209,"time_elapsed":1216173,"internal_node_id":"0.0-1.0-208.0"},{"rt":3010,"responses":"{\"Q0\":\"American Tree Sparrow\"}","bird":["American Tree Sparrow"],"family":["New World Sparrows and Allies"],"class":["894"],"trial_type":"image-multi-choice","trial_index":210,"time_elapsed":1220210,"internal_node_id":"0.0-1.0-209.0"},{"rt":3033,"responses":"{\"Q0\":\"Ovenbird\"}","bird":["Ovenbird"],"family":["Wood-Warblers"],"class":["860"],"trial_type":"image-multi-choice","trial_index":211,"time_elapsed":1224264,"internal_node_id":"0.0-1.0-210.0"},{"rt":2938,"responses":"{\"Q0\":\"Swamp Sparrow\"}","bird":["Swamp Sparrow"],"family":["New World Sparrows and Allies"],"class":["904"],"trial_type":"image-multi-choice","trial_index":212,"time_elapsed":1228220,"internal_node_id":"0.0-1.0-211.0"},{"rt":2653,"responses":"{\"Q0\":\"Song Sparrow\"}","bird":["Song Sparrow"],"family":["New World Sparrows and Allies"],"class":["902"],"trial_type":"image-multi-choice","trial_index":213,"time_elapsed":1231899,"internal_node_id":"0.0-1.0-212.0"},{"rt":3177,"responses":"{\"Q0\":\"Blackburnian Warbler\"}","bird":["Blackburnian Warbler"],"family":["Wood-Warblers"],"class":["874"],"trial_type":"image-multi-choice","trial_index":214,"time_elapsed":1236090,"internal_node_id":"0.0-1.0-213.0"},{"rt":2668,"responses":"{\"Q0\":\"Vesper Sparrow\"}","bird":["Vesper Sparrow"],"family":["New World Sparrows and Allies"],"class":["898"],"trial_type":"image-multi-choice","trial_index":215,"time_elapsed":1239805,"internal_node_id":"0.0-1.0-214.0"},{"rt":2848,"responses":"{\"Q0\":\"Blackburnian Warbler\"}","bird":["Blackburnian Warbler"],"family":["Wood-Warblers"],"class":["874"],"trial_type":"image-multi-choice","trial_index":216,"time_elapsed":1243667,"internal_node_id":"0.0-1.0-215.0"},{"rt":3032,"responses":"{\"Q0\":\"Song Sparrow\"}","bird":["Song Sparrow"],"family":["New World Sparrows and Allies"],"class":["902"],"trial_type":"image-multi-choice","trial_index":217,"time_elapsed":1247727,"internal_node_id":"0.0-1.0-216.0"},{"rt":12054,"responses":"{\"Q0\":\"Orange-crowned Warbler\"}","bird":["Tennessee Warbler"],"family":["Wood-Warblers"],"class":["866"],"trial_type":"image-multi-choice","trial_index":218,"time_elapsed":1260807,"internal_node_id":"0.0-1.0-217.0"},{"rt":2985,"responses":"{\"Q0\":\"Black-and-white Warbler\"}","bird":["Black-and-white Warbler"],"family":["Wood-Warblers"],"class":["864"],"trial_type":"image-multi-choice","trial_index":219,"time_elapsed":1264809,"internal_node_id":"0.0-1.0-218.0"},{"rt":3353,"responses":"{\"Q0\":\"Ovenbird\"}","bird":["Ovenbird"],"family":["Wood-Warblers"],"class":["860"],"trial_type":"image-multi-choice","trial_index":220,"time_elapsed":1269183,"internal_node_id":"0.0-1.0-219.0"},{"rt":2524,"responses":"{\"Q0\":\"White-throated Sparrow\"}","bird":["White-throated Sparrow"],"family":["New World Sparrows and Allies"],"class":["764"],"trial_type":"image-multi-choice","trial_index":221,"time_elapsed":1272729,"internal_node_id":"0.0-1.0-220.0"},{"rt":2845,"responses":"{\"Q0\":\"Vesper Sparrow\"}","bird":["Vesper Sparrow"],"family":["New World Sparrows and Allies"],"class":["898"],"trial_type":"image-multi-choice","trial_index":222,"time_elapsed":1276591,"internal_node_id":"0.0-1.0-221.0"},{"rt":2792,"responses":"{\"Q0\":\"American Tree Sparrow\"}","bird":["American Tree Sparrow"],"family":["New World Sparrows and Allies"],"class":["894"],"trial_type":"image-multi-choice","trial_index":223,"time_elapsed":1280401,"internal_node_id":"0.0-1.0-222.0"},{"rt":2412,"responses":"{\"Q0\":\"Yellow Warbler\"}","bird":["Yellow Warbler"],"family":["Wood-Warblers"],"class":["875"],"trial_type":"image-multi-choice","trial_index":224,"time_elapsed":1283845,"internal_node_id":"0.0-1.0-223.0"},{"rt":2534,"responses":"{\"Q0\":\"Northern Waterthrush\"}","bird":["Northern Waterthrush"],"family":["Wood-Warblers"],"class":["862"],"trial_type":"image-multi-choice","trial_index":225,"time_elapsed":1287399,"internal_node_id":"0.0-1.0-224.0"},{"rt":3246,"responses":"{\"Q0\":\"Blackburnian Warbler\"}","bird":["Blackburnian Warbler"],"family":["Wood-Warblers"],"class":["874"],"trial_type":"image-multi-choice","trial_index":226,"time_elapsed":1291671,"internal_node_id":"0.0-1.0-225.0"},{"rt":4338,"responses":"{\"Q0\":\"White-throated Sparrow\"}","bird":["White-throated Sparrow"],"family":["New World Sparrows and Allies"],"class":["764"],"trial_type":"image-multi-choice","trial_index":227,"time_elapsed":1297027,"internal_node_id":"0.0-1.0-226.0"},{"rt":2845,"responses":"{\"Q0\":\"Song Sparrow\"}","bird":["Song Sparrow"],"family":["New World Sparrows and Allies"],"class":["902"],"trial_type":"image-multi-choice","trial_index":228,"time_elapsed":1300896,"internal_node_id":"0.0-1.0-227.0"},{"rt":2730,"responses":"{\"Q0\":\"Ovenbird\"}","bird":["Ovenbird"],"family":["Wood-Warblers"],"class":["860"],"trial_type":"image-multi-choice","trial_index":229,"time_elapsed":1304641,"internal_node_id":"0.0-1.0-228.0"},{"rt":3065,"responses":"{\"Q0\":\"Townsend's Warbler\"}","bird":["Townsend's Warbler"],"family":["Wood-Warblers"],"class":["881"],"trial_type":"image-multi-choice","trial_index":230,"time_elapsed":1308721,"internal_node_id":"0.0-1.0-229.0"},{"rt":6576,"responses":"{\"Q0\":\"Nashville Warbler\"}","bird":["Nashville Warbler"],"family":["Wood-Warblers"],"class":["868"],"trial_type":"image-multi-choice","trial_index":231,"time_elapsed":1316312,"internal_node_id":"0.0-1.0-230.0"},{"rt":2883,"responses":"{\"Q0\":\"Fox Sparrow\"}","bird":["Fox Sparrow"],"family":["New World Sparrows and Allies"],"class":["901"],"trial_type":"image-multi-choice","trial_index":232,"time_elapsed":1320218,"internal_node_id":"0.0-1.0-231.0"},{"rt":2685,"responses":"{\"Q0\":\"Ovenbird\"}","bird":["Ovenbird"],"family":["Wood-Warblers"],"class":["860"],"trial_type":"image-multi-choice","trial_index":233,"time_elapsed":1323918,"internal_node_id":"0.0-1.0-232.0"},{"rt":2852,"responses":"{\"Q0\":\"Magnolia Warbler\"}","bird":["Magnolia Warbler"],"family":["Wood-Warblers"],"class":["758"],"trial_type":"image-multi-choice","trial_index":234,"time_elapsed":1327786,"internal_node_id":"0.0-1.0-233.0"},{"rt":3914,"responses":"{\"Q0\":\"American Tree Sparrow\"}","bird":["American Tree Sparrow"],"family":["New World Sparrows and Allies"],"class":["894"],"trial_type":"image-multi-choice","trial_index":235,"time_elapsed":1332725,"internal_node_id":"0.0-1.0-234.0"},{"rt":4047,"responses":"{\"Q0\":\"Blackburnian Warbler\"}","bird":["Blackburnian Warbler"],"family":["Wood-Warblers"],"class":["874"],"trial_type":"image-multi-choice","trial_index":236,"time_elapsed":1337796,"internal_node_id":"0.0-1.0-235.0"},{"rt":3508,"responses":"{\"Q0\":\"Chipping Sparrow\"}","bird":["Chipping Sparrow"],"family":["New World Sparrows and Allies"],"class":["769"],"trial_type":"image-multi-choice","trial_index":237,"time_elapsed":1342331,"internal_node_id":"0.0-1.0-236.0"},{"rt":2947,"responses":"{\"Q0\":\"Fox Sparrow\"}","bird":["Fox Sparrow"],"family":["New World Sparrows and Allies"],"class":["901"],"trial_type":"image-multi-choice","trial_index":238,"time_elapsed":1346296,"internal_node_id":"0.0-1.0-237.0"},{"rt":3503,"responses":"{\"Q0\":\"Vesper Sparrow\"}","bird":["Vesper Sparrow"],"family":["New World Sparrows and Allies"],"class":["898"],"trial_type":"image-multi-choice","trial_index":239,"time_elapsed":1350810,"internal_node_id":"0.0-1.0-238.0"},{"rt":3260,"responses":"{\"Q0\":\"Northern Waterthrush\"}","bird":["Northern Waterthrush"],"family":["Wood-Warblers"],"class":["862"],"trial_type":"image-multi-choice","trial_index":240,"time_elapsed":1357908,"internal_node_id":"0.0-1.0-239.0"},{"rt":3121,"responses":"{\"Q0\":\"Lark Sparrow\"}","bird":["Lark Sparrow"],"family":["New World Sparrows and Allies"],"class":["899"],"trial_type":"image-multi-choice","trial_index":241,"time_elapsed":1362050,"internal_node_id":"0.0-1.0-240.0"},{"rt":3980,"responses":"{\"Q0\":\"Nashville Warbler\"}","bird":["Nashville Warbler"],"family":["Wood-Warblers"],"class":["868"],"trial_type":"image-multi-choice","trial_index":242,"time_elapsed":1367047,"internal_node_id":"0.0-1.0-241.0"},{"rt":2801,"responses":"{\"Q0\":\"Ovenbird\"}","bird":["Ovenbird"],"family":["Wood-Warblers"],"class":["860"],"trial_type":"image-multi-choice","trial_index":243,"time_elapsed":1370872,"internal_node_id":"0.0-1.0-242.0"},{"rt":2385,"responses":"{\"Q0\":\"Northern Waterthrush\"}","bird":["Northern Waterthrush"],"family":["Wood-Warblers"],"class":["862"],"trial_type":"image-multi-choice","trial_index":244,"time_elapsed":1374265,"internal_node_id":"0.0-1.0-243.0"},{"rt":6686,"responses":"{\"Q0\":\"Orange-crowned Warbler\"}","bird":["Orange-crowned Warbler"],"family":["Wood-Warblers"],"class":["867"],"trial_type":"image-multi-choice","trial_index":245,"time_elapsed":1381965,"internal_node_id":"0.0-1.0-244.0"},{"rt":3292,"responses":"{\"Q0\":\"Chipping Sparrow\"}","bird":["Chipping Sparrow"],"family":["New World Sparrows and Allies"],"class":["769"],"trial_type":"image-multi-choice","trial_index":246,"time_elapsed":1386274,"internal_node_id":"0.0-1.0-245.0"},{"rt":7247,"responses":"{\"Q0\":\"Tennessee Warbler\"}","bird":["Tennessee Warbler"],"family":["Wood-Warblers"],"class":["866"],"trial_type":"image-multi-choice","trial_index":247,"time_elapsed":1394538,"internal_node_id":"0.0-1.0-246.0"},{"rt":2498,"responses":"{\"Q0\":\"Yellow Warbler\"}","bird":["Yellow Warbler"],"family":["Wood-Warblers"],"class":["875"],"trial_type":"image-multi-choice","trial_index":248,"time_elapsed":1398055,"internal_node_id":"0.0-1.0-247.0"},{"rt":4478,"responses":"{\"Q0\":\"Lincoln's Sparrow\"}","bird":["Lincoln's Sparrow"],"family":["New World Sparrows and Allies"],"class":["903"],"trial_type":"image-multi-choice","trial_index":249,"time_elapsed":1403557,"internal_node_id":"0.0-1.0-248.0"},{"rt":6014,"responses":"{\"Q0\":\"Song Sparrow\"}","bird":["Vesper Sparrow"],"family":["New World Sparrows and Allies"],"class":["898"],"trial_type":"image-multi-choice","trial_index":250,"time_elapsed":1410599,"internal_node_id":"0.0-1.0-249.0"},{"rt":3164,"responses":"{\"Q0\":\"Black-and-white Warbler\"}","bird":["Black-and-white Warbler"],"family":["Wood-Warblers"],"class":["864"],"trial_type":"image-multi-choice","trial_index":251,"time_elapsed":1414790,"internal_node_id":"0.0-1.0-250.0"},{"rt":3295,"responses":"{\"Q0\":\"Song Sparrow\"}","bird":["Song Sparrow"],"family":["New World Sparrows and Allies"],"class":["902"],"trial_type":"image-multi-choice","trial_index":252,"time_elapsed":1419113,"internal_node_id":"0.0-1.0-251.0"},{"rt":3532,"responses":"{\"Q0\":\"Chipping Sparrow\"}","bird":["Chipping Sparrow"],"family":["New World Sparrows and Allies"],"class":["769"],"trial_type":"image-multi-choice","trial_index":253,"time_elapsed":1423671,"internal_node_id":"0.0-1.0-252.0"},{"rt":3116,"responses":"{\"Q0\":\"Magnolia Warbler\"}","bird":["Magnolia Warbler"],"family":["Wood-Warblers"],"class":["758"],"trial_type":"image-multi-choice","trial_index":254,"time_elapsed":1427810,"internal_node_id":"0.0-1.0-253.0"},{"rt":3998,"responses":"{\"Q0\":\"Lincoln's Sparrow\"}","bird":["Lincoln's Sparrow"],"family":["New World Sparrows and Allies"],"class":["903"],"trial_type":"image-multi-choice","trial_index":255,"time_elapsed":1432836,"internal_node_id":"0.0-1.0-254.0"},{"rt":3192,"responses":"{\"Q0\":\"White-throated Sparrow\"}","bird":["White-throated Sparrow"],"family":["New World Sparrows and Allies"],"class":["764"],"trial_type":"image-multi-choice","trial_index":256,"time_elapsed":1437041,"internal_node_id":"0.0-1.0-255.0"},{"rt":2772,"responses":"{\"Q0\":\"Fox Sparrow\"}","bird":["Fox Sparrow"],"family":["New World Sparrows and Allies"],"class":["901"],"trial_type":"image-multi-choice","trial_index":257,"time_elapsed":1440829,"internal_node_id":"0.0-1.0-256.0"},{"rt":2852,"responses":"{\"Q0\":\"Black-and-white Warbler\"}","bird":["Black-and-white Warbler"],"family":["Wood-Warblers"],"class":["864"],"trial_type":"image-multi-choice","trial_index":258,"time_elapsed":1444698,"internal_node_id":"0.0-1.0-257.0"},{"rt":5211,"responses":"{\"Q0\":\"Chipping Sparrow\"}","bird":["Chipping Sparrow"],"family":["New World Sparrows and Allies"],"class":["769"],"trial_type":"image-multi-choice","trial_index":259,"time_elapsed":1450925,"internal_node_id":"0.0-1.0-258.0"},{"rt":10106,"responses":"{\"Q0\":\"Tennessee Warbler\"}","bird":["Orange-crowned Warbler"],"family":["Wood-Warblers"],"class":["867"],"trial_type":"image-multi-choice","trial_index":260,"time_elapsed":1462053,"internal_node_id":"0.0-1.0-259.0"},{"rt":2509,"responses":"{\"Q0\":\"Lark Sparrow\"}","bird":["Lark Sparrow"],"family":["New World Sparrows and Allies"],"class":["899"],"trial_type":"image-multi-choice","trial_index":261,"time_elapsed":1465578,"internal_node_id":"0.0-1.0-260.0"},{"rt":6264,"responses":"{\"Q0\":\"Lincoln's Sparrow\"}","bird":["Lincoln's Sparrow"],"family":["New World Sparrows and Allies"],"class":["903"],"trial_type":"image-multi-choice","trial_index":262,"time_elapsed":1472863,"internal_node_id":"0.0-1.0-261.0"},{"rt":3719,"responses":"{\"Q0\":\"Northern Waterthrush\"}","bird":["Northern Waterthrush"],"family":["Wood-Warblers"],"class":["862"],"trial_type":"image-multi-choice","trial_index":263,"time_elapsed":1477602,"internal_node_id":"0.0-1.0-262.0"},{"rt":6076,"responses":"{\"Q0\":\"Nashville Warbler\"}","bird":["Nashville Warbler"],"family":["Wood-Warblers"],"class":["868"],"trial_type":"image-multi-choice","trial_index":264,"time_elapsed":1484702,"internal_node_id":"0.0-1.0-263.0"},{"rt":2846,"responses":"{\"Q0\":\"Lark Sparrow\"}","bird":["Lark Sparrow"],"family":["New World Sparrows and Allies"],"class":["899"],"trial_type":"image-multi-choice","trial_index":265,"time_elapsed":1488563,"internal_node_id":"0.0-1.0-264.0"},{"rt":4577,"responses":"{\"Q0\":\"Orange-crowned Warbler\"}","bird":["Orange-crowned Warbler"],"family":["Wood-Warblers"],"class":["867"],"trial_type":"image-multi-choice","trial_index":266,"time_elapsed":1494154,"internal_node_id":"0.0-1.0-265.0"},{"rt":3928,"responses":"{\"Q0\":\"Magnolia Warbler\"}","bird":["Magnolia Warbler"],"family":["Wood-Warblers"],"class":["758"],"trial_type":"image-multi-choice","trial_index":267,"time_elapsed":1499100,"internal_node_id":"0.0-1.0-266.0"},{"rt":6388,"responses":"{\"Q0\":\"Orange-crowned Warbler\"}","bird":["Orange-crowned Warbler"],"family":["Wood-Warblers"],"class":["867"],"trial_type":"image-multi-choice","trial_index":268,"time_elapsed":1506510,"internal_node_id":"0.0-1.0-267.0"},{"rt":2554,"responses":"{\"Q0\":\"Yellow Warbler\"}","bird":["Yellow Warbler"],"family":["Wood-Warblers"],"class":["875"],"trial_type":"image-multi-choice","trial_index":269,"time_elapsed":1510092,"internal_node_id":"0.0-1.0-268.0"},{"rt":6955,"responses":"{\"Q0\":\"Orange-crowned Warbler\"}","bird":["Orange-crowned Warbler"],"family":["Wood-Warblers"],"class":["867"],"trial_type":"image-multi-choice","trial_index":270,"time_elapsed":1518072,"internal_node_id":"0.0-1.0-269.0"},{"rt":6094,"responses":"{\"Q0\":\"Lincoln's Sparrow\"}","bird":["Lincoln's Sparrow"],"family":["New World Sparrows and Allies"],"class":["903"],"trial_type":"image-multi-choice","trial_index":271,"time_elapsed":1525194,"internal_node_id":"0.0-1.0-270.0"},{"rt":3609,"responses":"{\"Q0\":\"Lark Sparrow\"}","bird":["Lark Sparrow"],"family":["New World Sparrows and Allies"],"class":["899"],"trial_type":"image-multi-choice","trial_index":272,"time_elapsed":1529817,"internal_node_id":"0.0-1.0-271.0"},{"rt":3216,"responses":"{\"Q0\":\"Lincoln's Sparrow\"}","bird":["Lincoln's Sparrow"],"family":["New World Sparrows and Allies"],"class":["903"],"trial_type":"image-multi-choice","trial_index":273,"time_elapsed":1534060,"internal_node_id":"0.0-1.0-272.0"},{"rt":6263,"responses":"{\"Q0\":\"Yellow Warbler\"}","bird":["Nashville Warbler"],"family":["Wood-Warblers"],"class":["868"],"trial_type":"image-multi-choice","trial_index":274,"time_elapsed":1541352,"internal_node_id":"0.0-1.0-273.0"},{"rt":3117,"responses":"{\"Q0\":\"Lark Sparrow\"}","bird":["Lark Sparrow"],"family":["New World Sparrows and Allies"],"class":["899"],"trial_type":"image-multi-choice","trial_index":275,"time_elapsed":1545491,"internal_node_id":"0.0-1.0-274.0"},{"rt":3064,"responses":"{\"Q0\":\"Chipping Sparrow\"}","bird":["Chipping Sparrow"],"family":["New World Sparrows and Allies"],"class":["769"],"trial_type":"image-multi-choice","trial_index":276,"time_elapsed":1549572,"internal_node_id":"0.0-1.0-275.0"},{"rt":2907,"responses":"{\"Q0\":\"White-throated Sparrow\"}","bird":["White-throated Sparrow"],"family":["New World Sparrows and Allies"],"class":["764"],"trial_type":"image-multi-choice","trial_index":277,"time_elapsed":1553508,"internal_node_id":"0.0-1.0-276.0"},{"rt":3103,"responses":"{\"Q0\":\"Song Sparrow\"}","bird":["Song Sparrow"],"family":["New World Sparrows and Allies"],"class":["902"],"trial_type":"image-multi-choice","trial_index":278,"time_elapsed":1557625,"internal_node_id":"0.0-1.0-277.0"},{"rt":2893,"responses":"{\"Q0\":\"Ovenbird\"}","bird":["Ovenbird"],"family":["Wood-Warblers"],"class":["860"],"trial_type":"image-multi-choice","trial_index":279,"time_elapsed":1561539,"internal_node_id":"0.0-1.0-278.0"},{"rt":2987,"responses":"{\"Q0\":\"Lark Sparrow\"}","bird":["Lark Sparrow"],"family":["New World Sparrows and Allies"],"class":["899"],"trial_type":"image-multi-choice","trial_index":280,"time_elapsed":1565540,"internal_node_id":"0.0-1.0-279.0"},{"rt":5975,"responses":"{\"Q0\":\"Chipping Sparrow\"}","bird":["Chipping Sparrow"],"family":["New World Sparrows and Allies"],"class":["769"],"trial_type":"image-multi-choice","trial_index":281,"time_elapsed":1572546,"internal_node_id":"0.0-1.0-280.0"},{"rt":2640,"responses":"{\"Q0\":\"Lark Sparrow\"}","bird":["Lark Sparrow"],"family":["New World Sparrows and Allies"],"class":["899"],"trial_type":"image-multi-choice","trial_index":282,"time_elapsed":1576201,"internal_node_id":"0.0-1.0-281.0"},{"rt":2744,"responses":"{\"Q0\":\"Song Sparrow\"}","bird":["Song Sparrow"],"family":["New World Sparrows and Allies"],"class":["902"],"trial_type":"image-multi-choice","trial_index":283,"time_elapsed":1579962,"internal_node_id":"0.0-1.0-282.0"},{"rt":3535,"responses":"{\"Q0\":\"White-throated Sparrow\"}","bird":["White-throated Sparrow"],"family":["New World Sparrows and Allies"],"class":["764"],"trial_type":"image-multi-choice","trial_index":284,"time_elapsed":1584512,"internal_node_id":"0.0-1.0-283.0"},{"rt":2885,"responses":"{\"Q0\":\"Magnolia Warbler\"}","bird":["Magnolia Warbler"],"family":["Wood-Warblers"],"class":["758"],"trial_type":"image-multi-choice","trial_index":285,"time_elapsed":1588410,"internal_node_id":"0.0-1.0-284.0"},{"rt":5377,"responses":"{\"Q0\":\"Orange-crowned Warbler\"}","bird":["Orange-crowned Warbler"],"family":["Wood-Warblers"],"class":["867"],"trial_type":"image-multi-choice","trial_index":286,"time_elapsed":1594801,"internal_node_id":"0.0-1.0-285.0"},{"rt":2935,"responses":"{\"Q0\":\"Lincoln's Sparrow\"}","bird":["Lincoln's Sparrow"],"family":["New World Sparrows and Allies"],"class":["903"],"trial_type":"image-multi-choice","trial_index":287,"time_elapsed":1598751,"internal_node_id":"0.0-1.0-286.0"},{"rt":3366,"responses":"{\"Q0\":\"Lark Sparrow\"}","bird":["Lark Sparrow"],"family":["New World Sparrows and Allies"],"class":["899"],"trial_type":"image-multi-choice","trial_index":288,"time_elapsed":1603131,"internal_node_id":"0.0-1.0-287.0"},{"rt":4152,"responses":"{\"Q0\":\"Townsend's Warbler\"}","bird":["Townsend's Warbler"],"family":["Wood-Warblers"],"class":["881"],"trial_type":"image-multi-choice","trial_index":289,"time_elapsed":1608298,"internal_node_id":"0.0-1.0-288.0"},{"rt":2522,"responses":"{\"Q0\":\"Black-and-white Warbler\"}","bird":["Black-and-white Warbler"],"family":["Wood-Warblers"],"class":["864"],"trial_type":"image-multi-choice","trial_index":290,"time_elapsed":1611837,"internal_node_id":"0.0-1.0-289.0"},{"rt":3793,"responses":"{\"Q0\":\"Tennessee Warbler\"}","bird":["Tennessee Warbler"],"family":["Wood-Warblers"],"class":["866"],"trial_type":"image-multi-choice","trial_index":291,"time_elapsed":1616644,"internal_node_id":"0.0-1.0-290.0"},{"rt":5833,"responses":"{\"Q0\":\"American Tree Sparrow\"}","bird":["American Tree Sparrow"],"family":["New World Sparrows and Allies"],"class":["894"],"trial_type":"image-multi-choice","trial_index":292,"time_elapsed":1623502,"internal_node_id":"0.0-1.0-291.0"},{"rt":3037,"responses":"{\"Q0\":\"Chipping Sparrow\"}","bird":["Chipping Sparrow"],"family":["New World Sparrows and Allies"],"class":["769"],"trial_type":"image-multi-choice","trial_index":293,"time_elapsed":1627563,"internal_node_id":"0.0-1.0-292.0"},{"rt":2736,"responses":"{\"Q0\":\"Lark Sparrow\"}","bird":["Lark Sparrow"],"family":["New World Sparrows and Allies"],"class":["899"],"trial_type":"image-multi-choice","trial_index":294,"time_elapsed":1631313,"internal_node_id":"0.0-1.0-293.0"},{"rt":2637,"responses":"{\"Q0\":\"Magnolia Warbler\"}","bird":["Magnolia Warbler"],"family":["Wood-Warblers"],"class":["758"],"trial_type":"image-multi-choice","trial_index":295,"time_elapsed":1634977,"internal_node_id":"0.0-1.0-294.0"},{"rt":2186,"responses":"{\"Q0\":\"Yellow Warbler\"}","bird":["Yellow Warbler"],"family":["Wood-Warblers"],"class":["875"],"trial_type":"image-multi-choice","trial_index":296,"time_elapsed":1638179,"internal_node_id":"0.0-1.0-295.0"},{"rt":2902,"responses":"{\"Q0\":\"White-crowned Sparrow\"}","bird":["White-crowned Sparrow"],"family":["New World Sparrows and Allies"],"class":["766"],"trial_type":"image-multi-choice","trial_index":297,"time_elapsed":1642099,"internal_node_id":"0.0-1.0-296.0"},{"rt":4790,"responses":"{\"Q0\":\"Song Sparrow\"}","bird":["Swamp Sparrow"],"family":["New World Sparrows and Allies"],"class":["904"],"trial_type":"image-multi-choice","trial_index":298,"time_elapsed":1647910,"internal_node_id":"0.0-1.0-297.0"},{"rt":6903,"responses":"{\"Q0\":\"Orange-crowned Warbler\"}","bird":["Orange-crowned Warbler"],"family":["Wood-Warblers"],"class":["867"],"trial_type":"image-multi-choice","trial_index":299,"time_elapsed":1655839,"internal_node_id":"0.0-1.0-298.0"},{"rt":3361,"responses":"{\"Q0\":\"Vesper Sparrow\"}","bird":["Vesper Sparrow"],"family":["New World Sparrows and Allies"],"class":["898"],"trial_type":"image-multi-choice","trial_index":300,"time_elapsed":1665604,"internal_node_id":"0.0-1.0-299.0"},{"view_history":"[{\"page_index\":0,\"viewing_time\":1421}]","rt":1422,"trial_type":"instructions","trial_index":301,"time_elapsed":1668039,"internal_node_id":"0.0-2.0"}]