"view_history","rt","trial_type","trial_index","time_elapsed","internal_node_id","responses","bird","family","class"
"[{""page_index"":0,""viewing_time"":4649}]","4650","instructions","0","4651","0.0-0.0","","","",""
"","14567","image-multi-choice","1","20236","0.0-1.0-0.0","{""Q0"":""Townsend's Warbler""}","Townsend's Warbler","Wood-Warblers","881"
"","2787","image-multi-choice","2","24034","0.0-1.0-1.0","{""Q0"":""Lark Sparrow""}","Lark Sparrow","New World Sparrows and Allies","899"
"","3213","image-multi-choice","3","28257","0.0-1.0-2.0","{""Q0"":""White-crowned Sparrow""}","White-crowned Sparrow","New World Sparrows and Allies","766"
"","3085","image-multi-choice","4","32354","0.0-1.0-3.0","{""Q0"":""Lark Sparrow""}","Lark Sparrow","New World Sparrows and Allies","899"
"","3375","image-multi-choice","5","36739","0.0-1.0-4.0","{""Q0"":""White-throated Sparrow""}","White-throated Sparrow","New World Sparrows and Allies","764"
"","2927","image-multi-choice","6","40675","0.0-1.0-5.0","{""Q0"":""White-crowned Sparrow""}","White-crowned Sparrow","New World Sparrows and Allies","766"
"","7005","image-multi-choice","7","48690","0.0-1.0-6.0","{""Q0"":""Tennessee Warbler""}","Tennessee Warbler","Wood-Warblers","866"
"","2915","image-multi-choice","8","52619","0.0-1.0-7.0","{""Q0"":""White-crowned Sparrow""}","White-crowned Sparrow","New World Sparrows and Allies","766"
"","3910","image-multi-choice","9","57539","0.0-1.0-8.0","{""Q0"":""Orange-crowned Warbler""}","Orange-crowned Warbler","Wood-Warblers","867"
"","7672","image-multi-choice","10","66218","0.0-1.0-9.0","{""Q0"":""Swamp Sparrow""}","Swamp Sparrow","New World Sparrows and Allies","904"
"","6584","image-multi-choice","11","73811","0.0-1.0-10.0","{""Q0"":""Orange-crowned Warbler""}","Orange-crowned Warbler","Wood-Warblers","867"
"","6320","image-multi-choice","12","81138","0.0-1.0-11.0","{""Q0"":""White-crowned Sparrow""}","White-crowned Sparrow","New World Sparrows and Allies","766"
"","5536","image-multi-choice","13","87683","0.0-1.0-12.0","{""Q0"":""Townsend's Warbler""}","Townsend's Warbler","Wood-Warblers","881"
"","4133","image-multi-choice","14","92827","0.0-1.0-13.0","{""Q0"":""Lincoln's Sparrow""}","Lincoln's Sparrow","New World Sparrows and Allies","903"
"","3333","image-multi-choice","15","97171","0.0-1.0-14.0","{""Q0"":""Ovenbird""}","Ovenbird","Wood-Warblers","860"
"","6952","image-multi-choice","16","105130","0.0-1.0-15.0","{""Q0"":""Tennessee Warbler""}","Tennessee Warbler","Wood-Warblers","866"
"","5280","image-multi-choice","17","111417","0.0-1.0-16.0","{""Q0"":""Vesper Sparrow""}","Vesper Sparrow","New World Sparrows and Allies","898"
"","10698","image-multi-choice","18","123122","0.0-1.0-17.0","{""Q0"":""Tennessee Warbler""}","Tennessee Warbler","Wood-Warblers","866"
"","3935","image-multi-choice","19","128065","0.0-1.0-18.0","{""Q0"":""Vesper Sparrow""}","Vesper Sparrow","New World Sparrows and Allies","898"
"","3520","image-multi-choice","20","132593","0.0-1.0-19.0","{""Q0"":""Song Sparrow""}","Song Sparrow","New World Sparrows and Allies","902"
"","4182","image-multi-choice","21","137786","0.0-1.0-20.0","{""Q0"":""Magnolia Warbler""}","Magnolia Warbler","Wood-Warblers","758"
"","6103","image-multi-choice","22","144898","0.0-1.0-21.0","{""Q0"":""Orange-crowned Warbler""}","Orange-crowned Warbler","Wood-Warblers","867"
"","8504","image-multi-choice","23","154409","0.0-1.0-22.0","{""Q0"":""Townsend's Warbler""}","Townsend's Warbler","Wood-Warblers","881"
"","6709","image-multi-choice","24","162130","0.0-1.0-23.0","{""Q0"":""Ovenbird""}","Ovenbird","Wood-Warblers","860"
"","4768","image-multi-choice","25","167906","0.0-1.0-24.0","{""Q0"":""Lincoln's Sparrow""}","Lincoln's Sparrow","New World Sparrows and Allies","903"
"","2749","image-multi-choice","26","171666","0.0-1.0-25.0","{""Q0"":""White-throated Sparrow""}","White-throated Sparrow","New World Sparrows and Allies","764"
"","2881","image-multi-choice","27","175555","0.0-1.0-26.0","{""Q0"":""Ovenbird""}","Ovenbird","Wood-Warblers","860"
"","5750","image-multi-choice","28","182314","0.0-1.0-27.0","{""Q0"":""Chipping Sparrow""}","Chipping Sparrow","New World Sparrows and Allies","769"
"","3528","image-multi-choice","29","186851","0.0-1.0-28.0","{""Q0"":""Fox Sparrow""}","Fox Sparrow","New World Sparrows and Allies","901"
"","3617","image-multi-choice","30","191475","0.0-1.0-29.0","{""Q0"":""Magnolia Warbler""}","Magnolia Warbler","Wood-Warblers","758"
"","4495","image-multi-choice","31","196979","0.0-1.0-30.0","{""Q0"":""Northern Waterthrush""}","Northern Waterthrush","Wood-Warblers","862"
"","19943","image-multi-choice","32","217931","0.0-1.0-31.0","{""Q0"":""Orange-crowned Warbler""}","Tennessee Warbler","Wood-Warblers","866"
"","3671","image-multi-choice","33","222611","0.0-1.0-32.0","{""Q0"":""Magnolia Warbler""}","Magnolia Warbler","Wood-Warblers","758"
"","5480","image-multi-choice","34","229099","0.0-1.0-33.0","{""Q0"":""Song Sparrow""}","Song Sparrow","New World Sparrows and Allies","902"
"","2930","image-multi-choice","35","233041","0.0-1.0-34.0","{""Q0"":""Lark Sparrow""}","Lark Sparrow","New World Sparrows and Allies","899"
"","7089","image-multi-choice","36","241137","0.0-1.0-35.0","{""Q0"":""Yellow Warbler""}","Nashville Warbler","Wood-Warblers","868"
"","4002","image-multi-choice","37","246146","0.0-1.0-36.0","{""Q0"":""Northern Waterthrush""}","Northern Waterthrush","Wood-Warblers","862"
"","14008","image-multi-choice","38","261162","0.0-1.0-37.0","{""Q0"":""American Tree Sparrow""}","Chipping Sparrow","New World Sparrows and Allies","769"
"","2400","image-multi-choice","39","264570","0.0-1.0-38.0","{""Q0"":""Yellow Warbler""}","Yellow Warbler","Wood-Warblers","875"
"","3008","image-multi-choice","40","268585","0.0-1.0-39.0","{""Q0"":""Ovenbird""}","Ovenbird","Wood-Warblers","860"
"","4069","image-multi-choice","41","273665","0.0-1.0-40.0","{""Q0"":""Black-and-white Warbler""}","Black-and-white Warbler","Wood-Warblers","864"
"","5698","image-multi-choice","42","280370","0.0-1.0-41.0","{""Q0"":""Tennessee Warbler""}","Tennessee Warbler","Wood-Warblers","866"
"","8294","image-multi-choice","43","289674","0.0-1.0-42.0","{""Q0"":""Song Sparrow""}","Song Sparrow","New World Sparrows and Allies","902"
"","2920","image-multi-choice","44","293602","0.0-1.0-43.0","{""Q0"":""Blackburnian Warbler""}","Blackburnian Warbler","Wood-Warblers","874"
"","4352","image-multi-choice","45","298963","0.0-1.0-44.0","{""Q0"":""Black-and-white Warbler""}","Black-and-white Warbler","Wood-Warblers","864"
"","3440","image-multi-choice","46","303411","0.0-1.0-45.0","{""Q0"":""Magnolia Warbler""}","Magnolia Warbler","Wood-Warblers","758"
"","2976","image-multi-choice","47","307394","0.0-1.0-46.0","{""Q0"":""Ovenbird""}","Ovenbird","Wood-Warblers","860"
"","3720","image-multi-choice","48","312123","0.0-1.0-47.0","{""Q0"":""Vesper Sparrow""}","Vesper Sparrow","New World Sparrows and Allies","898"
"","3342","image-multi-choice","49","316475","0.0-1.0-48.0","{""Q0"":""Lark Sparrow""}","Lark Sparrow","New World Sparrows and Allies","899"
"","3768","image-multi-choice","50","321251","0.0-1.0-49.0","{""Q0"":""Black-and-white Warbler""}","Black-and-white Warbler","Wood-Warblers","864"
"","31016","image-multi-choice","51","353274","0.0-1.0-50.0","{""Q0"":""Townsend's Warbler""}","Townsend's Warbler","Wood-Warblers","881"
"","8047","image-multi-choice","52","362329","0.0-1.0-51.0","{""Q0"":""Yellow Warbler""}","Nashville Warbler","Wood-Warblers","868"
"","10968","image-multi-choice","53","374305","0.0-1.0-52.0","{""Q0"":""Chipping Sparrow""}","Chipping Sparrow","New World Sparrows and Allies","769"
"","4753","image-multi-choice","54","380065","0.0-1.0-53.0","{""Q0"":""Swamp Sparrow""}","Swamp Sparrow","New World Sparrows and Allies","904"
"","2632","image-multi-choice","55","383706","0.0-1.0-54.0","{""Q0"":""White-crowned Sparrow""}","White-crowned Sparrow","New World Sparrows and Allies","766"
"","2793","image-multi-choice","56","387514","0.0-1.0-55.0","{""Q0"":""Black-and-white Warbler""}","Black-and-white Warbler","Wood-Warblers","864"
"","9168","image-multi-choice","57","397689","0.0-1.0-56.0","{""Q0"":""Orange-crowned Warbler""}","Tennessee Warbler","Wood-Warblers","866"
"","5690","image-multi-choice","58","404386","0.0-1.0-57.0","{""Q0"":""Townsend's Warbler""}","Townsend's Warbler","Wood-Warblers","881"
"","13952","image-multi-choice","59","419346","0.0-1.0-58.0","{""Q0"":""Orange-crowned Warbler""}","Nashville Warbler","Wood-Warblers","868"
"","4424","image-multi-choice","60","462097","0.0-1.0-59.0","{""Q0"":""Lincoln's Sparrow""}","Lincoln's Sparrow","New World Sparrows and Allies","903"
"","3480","image-multi-choice","61","466593","0.0-1.0-60.0","{""Q0"":""Song Sparrow""}","Song Sparrow","New World Sparrows and Allies","902"
"","3599","image-multi-choice","62","471202","0.0-1.0-61.0","{""Q0"":""Yellow Warbler""}","Yellow Warbler","Wood-Warblers","875"
"","3062","image-multi-choice","63","475274","0.0-1.0-62.0","{""Q0"":""White-throated Sparrow""}","White-throated Sparrow","New World Sparrows and Allies","764"
"","10537","image-multi-choice","64","486818","0.0-1.0-63.0","{""Q0"":""Tennessee Warbler""}","Tennessee Warbler","Wood-Warblers","866"
"","5783","image-multi-choice","65","493610","0.0-1.0-64.0","{""Q0"":""Lincoln's Sparrow""}","Lincoln's Sparrow","New World Sparrows and Allies","903"
"","3255","image-multi-choice","66","497874","0.0-1.0-65.0","{""Q0"":""Blackburnian Warbler""}","Blackburnian Warbler","Wood-Warblers","874"
"","10389","image-multi-choice","67","509274","0.0-1.0-66.0","{""Q0"":""Northern Waterthrush""}","Northern Waterthrush","Wood-Warblers","862"
"","2470","image-multi-choice","68","512754","0.0-1.0-67.0","{""Q0"":""Yellow Warbler""}","Yellow Warbler","Wood-Warblers","875"
"","5630","image-multi-choice","69","519393","0.0-1.0-68.0","{""Q0"":""Lincoln's Sparrow""}","Lincoln's Sparrow","New World Sparrows and Allies","903"
"","8281","image-multi-choice","70","528682","0.0-1.0-69.0","{""Q0"":""American Tree Sparrow""}","American Tree Sparrow","New World Sparrows and Allies","894"
"","5424","image-multi-choice","71","535115","0.0-1.0-70.0","{""Q0"":""Orange-crowned Warbler""}","Orange-crowned Warbler","Wood-Warblers","867"
"","5143","image-multi-choice","72","541266","0.0-1.0-71.0","{""Q0"":""Lincoln's Sparrow""}","Lincoln's Sparrow","New World Sparrows and Allies","903"
"","3584","image-multi-choice","73","545858","0.0-1.0-72.0","{""Q0"":""Magnolia Warbler""}","Magnolia Warbler","Wood-Warblers","758"
"","8783","image-multi-choice","74","555652","0.0-1.0-73.0","{""Q0"":""Vesper Sparrow""}","Lincoln's Sparrow","New World Sparrows and Allies","903"
"","8583","image-multi-choice","75","565243","0.0-1.0-74.0","{""Q0"":""Yellow Warbler""}","Yellow Warbler","Wood-Warblers","875"
"","2600","image-multi-choice","76","568850","0.0-1.0-75.0","{""Q0"":""White-crowned Sparrow""}","White-crowned Sparrow","New World Sparrows and Allies","766"
"","98840","image-multi-choice","77","668699","0.0-1.0-76.0","{""Q0"":""Nashville Warbler""}","Nashville Warbler","Wood-Warblers","868"
"","5432","image-multi-choice","78","675139","0.0-1.0-77.0","{""Q0"":""American Tree Sparrow""}","American Tree Sparrow","New World Sparrows and Allies","894"
"","13302","image-multi-choice","79","689451","0.0-1.0-78.0","{""Q0"":""Townsend's Warbler""}","Townsend's Warbler","Wood-Warblers","881"
"","11329","image-multi-choice","80","701787","0.0-1.0-79.0","{""Q0"":""Chipping Sparrow""}","Chipping Sparrow","New World Sparrows and Allies","769"
"","4149","image-multi-choice","81","706946","0.0-1.0-80.0","{""Q0"":""White-throated Sparrow""}","White-throated Sparrow","New World Sparrows and Allies","764"
"","2641","image-multi-choice","82","710594","0.0-1.0-81.0","{""Q0"":""Ovenbird""}","Ovenbird","Wood-Warblers","860"
"","2810","image-multi-choice","83","714411","0.0-1.0-82.0","{""Q0"":""White-crowned Sparrow""}","White-crowned Sparrow","New World Sparrows and Allies","766"
"","3010","image-multi-choice","84","718427","0.0-1.0-83.0","{""Q0"":""Magnolia Warbler""}","Magnolia Warbler","Wood-Warblers","758"
"","2542","image-multi-choice","85","721979","0.0-1.0-84.0","{""Q0"":""Yellow Warbler""}","Yellow Warbler","Wood-Warblers","875"
"","3064","image-multi-choice","86","726051","0.0-1.0-85.0","{""Q0"":""Lark Sparrow""}","Lark Sparrow","New World Sparrows and Allies","899"
"","14280","image-multi-choice","87","741338","0.0-1.0-86.0","{""Q0"":""Swamp Sparrow""}","Lincoln's Sparrow","New World Sparrows and Allies","903"
"","3093","image-multi-choice","88","745442","0.0-1.0-87.0","{""Q0"":""Black-and-white Warbler""}","Black-and-white Warbler","Wood-Warblers","864"
"","3249","image-multi-choice","89","749699","0.0-1.0-88.0","{""Q0"":""White-crowned Sparrow""}","White-crowned Sparrow","New World Sparrows and Allies","766"
"","6175","image-multi-choice","90","756883","0.0-1.0-89.0","{""Q0"":""Townsend's Warbler""}","Townsend's Warbler","Wood-Warblers","881"
"","3088","image-multi-choice","91","760978","0.0-1.0-90.0","{""Q0"":""White-throated Sparrow""}","White-throated Sparrow","New World Sparrows and Allies","764"
"","3337","image-multi-choice","92","765322","0.0-1.0-91.0","{""Q0"":""Magnolia Warbler""}","Magnolia Warbler","Wood-Warblers","758"
"","8130","image-multi-choice","93","774459","0.0-1.0-92.0","{""Q0"":""Lincoln's Sparrow""}","Lincoln's Sparrow","New World Sparrows and Allies","903"
"","5479","image-multi-choice","94","780946","0.0-1.0-93.0","{""Q0"":""Blackburnian Warbler""}","Blackburnian Warbler","Wood-Warblers","874"
"","6351","image-multi-choice","95","788307","0.0-1.0-94.0","{""Q0"":""Vesper Sparrow""}","Vesper Sparrow","New World Sparrows and Allies","898"
"","2868","image-multi-choice","96","792187","0.0-1.0-95.0","{""Q0"":""Lark Sparrow""}","Lark Sparrow","New World Sparrows and Allies","899"
"","3823","image-multi-choice","97","797018","0.0-1.0-96.0","{""Q0"":""Swamp Sparrow""}","Swamp Sparrow","New World Sparrows and Allies","904"
"","2929","image-multi-choice","98","800954","0.0-1.0-97.0","{""Q0"":""Northern Waterthrush""}","Northern Waterthrush","Wood-Warblers","862"
"","3888","image-multi-choice","99","805850","0.0-1.0-98.0","{""Q0"":""Ovenbird""}","Ovenbird","Wood-Warblers","860"
"","3048","image-multi-choice","100","809906","0.0-1.0-99.0","{""Q0"":""White-throated Sparrow""}","White-throated Sparrow","New World Sparrows and Allies","764"
"","12462","image-multi-choice","101","823378","0.0-1.0-100.0","{""Q0"":""Nashville Warbler""}","Nashville Warbler","Wood-Warblers","868"
"","3090","image-multi-choice","102","827482","0.0-1.0-101.0","{""Q0"":""Magnolia Warbler""}","Magnolia Warbler","Wood-Warblers","758"
"","8969","image-multi-choice","103","837458","0.0-1.0-102.0","{""Q0"":""Swamp Sparrow""}","Swamp Sparrow","New World Sparrows and Allies","904"
"","3313","image-multi-choice","104","841778","0.0-1.0-103.0","{""Q0"":""Blackburnian Warbler""}","Blackburnian Warbler","Wood-Warblers","874"
"","2825","image-multi-choice","105","845610","0.0-1.0-104.0","{""Q0"":""Northern Waterthrush""}","Northern Waterthrush","Wood-Warblers","862"
"","6576","image-multi-choice","106","853193","0.0-1.0-105.0","{""Q0"":""Swamp Sparrow""}","Swamp Sparrow","New World Sparrows and Allies","904"
"","2454","image-multi-choice","107","856658","0.0-1.0-106.0","{""Q0"":""Song Sparrow""}","Song Sparrow","New World Sparrows and Allies","902"
"","3049","image-multi-choice","108","860714","0.0-1.0-107.0","{""Q0"":""Black-and-white Warbler""}","Black-and-white Warbler","Wood-Warblers","864"
"","3112","image-multi-choice","109","864834","0.0-1.0-108.0","{""Q0"":""Blackburnian Warbler""}","Blackburnian Warbler","Wood-Warblers","874"
"","9394","image-multi-choice","110","875235","0.0-1.0-109.0","{""Q0"":""Nashville Warbler""}","Nashville Warbler","Wood-Warblers","868"
"","9295","image-multi-choice","111","885538","0.0-1.0-110.0","{""Q0"":""Chipping Sparrow""}","Chipping Sparrow","New World Sparrows and Allies","769"
"","4329","image-multi-choice","112","890875","0.0-1.0-111.0","{""Q0"":""American Tree Sparrow""}","American Tree Sparrow","New World Sparrows and Allies","894"
"","3320","image-multi-choice","113","895203","0.0-1.0-112.0","{""Q0"":""Northern Waterthrush""}","Northern Waterthrush","Wood-Warblers","862"
"","2533","image-multi-choice","114","898746","0.0-1.0-113.0","{""Q0"":""Yellow Warbler""}","Yellow Warbler","Wood-Warblers","875"
"","10541","image-multi-choice","115","910300","0.0-1.0-114.0","{""Q0"":""Orange-crowned Warbler""}","Tennessee Warbler","Wood-Warblers","866"
"","9672","image-multi-choice","116","920978","0.0-1.0-115.0","{""Q0"":""Lincoln's Sparrow""}","Lincoln's Sparrow","New World Sparrows and Allies","903"
"","6929","image-multi-choice","117","928914","0.0-1.0-116.0","{""Q0"":""Townsend's Warbler""}","Black-and-white Warbler","Wood-Warblers","864"
"","6463","image-multi-choice","118","936385","0.0-1.0-117.0","{""Q0"":""Song Sparrow""}","Song Sparrow","New World Sparrows and Allies","902"
"","5441","image-multi-choice","119","942834","0.0-1.0-118.0","{""Q0"":""Lincoln's Sparrow""}","Lincoln's Sparrow","New World Sparrows and Allies","903"
"","3104","image-multi-choice","120","1127233","0.0-1.0-119.0","{""Q0"":""Blackburnian Warbler""}","Blackburnian Warbler","Wood-Warblers","874"
"","8842","image-multi-choice","121","1137083","0.0-1.0-120.0","{""Q0"":""Nashville Warbler""}","Nashville Warbler","Wood-Warblers","868"
"","11224","image-multi-choice","122","1149314","0.0-1.0-121.0","{""Q0"":""Vesper Sparrow""}","Vesper Sparrow","New World Sparrows and Allies","898"
"","3370","image-multi-choice","123","1153691","0.0-1.0-122.0","{""Q0"":""Townsend's Warbler""}","Townsend's Warbler","Wood-Warblers","881"
"","4217","image-multi-choice","124","1158915","0.0-1.0-123.0","{""Q0"":""Song Sparrow""}","Song Sparrow","New World Sparrows and Allies","902"
"","2885","image-multi-choice","125","1162811","0.0-1.0-124.0","{""Q0"":""White-throated Sparrow""}","White-throated Sparrow","New World Sparrows and Allies","764"
"","9969","image-multi-choice","126","1173787","0.0-1.0-125.0","{""Q0"":""Nashville Warbler""}","Nashville Warbler","Wood-Warblers","868"
"","2782","image-multi-choice","127","1177579","0.0-1.0-126.0","{""Q0"":""Fox Sparrow""}","Fox Sparrow","New World Sparrows and Allies","901"
"","2864","image-multi-choice","128","1181451","0.0-1.0-127.0","{""Q0"":""Magnolia Warbler""}","Magnolia Warbler","Wood-Warblers","758"
"","8416","image-multi-choice","129","1190874","0.0-1.0-128.0","{""Q0"":""Yellow Warbler""}","Nashville Warbler","Wood-Warblers","868"
"","3889","image-multi-choice","130","1195770","0.0-1.0-129.0","{""Q0"":""Swamp Sparrow""}","Swamp Sparrow","New World Sparrows and Allies","904"
"","2791","image-multi-choice","131","1199570","0.0-1.0-130.0","{""Q0"":""White-throated Sparrow""}","White-throated Sparrow","New World Sparrows and Allies","764"
"","24396","image-multi-choice","132","1224979","0.0-1.0-131.0","{""Q0"":""Fox Sparrow""}","Song Sparrow","New World Sparrows and Allies","902"
"","2328","image-multi-choice","133","1228315","0.0-1.0-132.0","{""Q0"":""Yellow Warbler""}","Yellow Warbler","Wood-Warblers","875"
"","8190","image-multi-choice","134","1237513","0.0-1.0-133.0","{""Q0"":""Townsend's Warbler""}","Townsend's Warbler","Wood-Warblers","881"
"","4370","image-multi-choice","135","1242890","0.0-1.0-134.0","{""Q0"":""Fox Sparrow""}","Fox Sparrow","New World Sparrows and Allies","901"
"","4504","image-multi-choice","136","1248401","0.0-1.0-135.0","{""Q0"":""White-crowned Sparrow""}","White-crowned Sparrow","New World Sparrows and Allies","766"
"","2867","image-multi-choice","137","1252274","0.0-1.0-136.0","{""Q0"":""Magnolia Warbler""}","Magnolia Warbler","Wood-Warblers","758"
"","11195","image-multi-choice","138","1264475","0.0-1.0-137.0","{""Q0"":""Blackburnian Warbler""}","Blackburnian Warbler","Wood-Warblers","874"
"","3776","image-multi-choice","139","1269259","0.0-1.0-138.0","{""Q0"":""Magnolia Warbler""}","Magnolia Warbler","Wood-Warblers","758"
"","6415","image-multi-choice","140","1276683","0.0-1.0-139.0","{""Q0"":""Chipping Sparrow""}","Chipping Sparrow","New World Sparrows and Allies","769"
"","7159","image-multi-choice","141","1284851","0.0-1.0-140.0","{""Q0"":""American Tree Sparrow""}","American Tree Sparrow","New World Sparrows and Allies","894"
"","4864","image-multi-choice","142","1290722","0.0-1.0-141.0","{""Q0"":""Orange-crowned Warbler""}","Orange-crowned Warbler","Wood-Warblers","867"
"","3066","image-multi-choice","143","1294795","0.0-1.0-142.0","{""Q0"":""Fox Sparrow""}","Fox Sparrow","New World Sparrows and Allies","901"
"","2665","image-multi-choice","144","1298467","0.0-1.0-143.0","{""Q0"":""Yellow Warbler""}","Yellow Warbler","Wood-Warblers","875"
"","5656","image-multi-choice","145","1305130","0.0-1.0-144.0","{""Q0"":""American Tree Sparrow""}","American Tree Sparrow","New World Sparrows and Allies","894"
"","6768","image-multi-choice","146","1312906","0.0-1.0-145.0","{""Q0"":""Swamp Sparrow""}","Swamp Sparrow","New World Sparrows and Allies","904"
"","5677","image-multi-choice","147","1319593","0.0-1.0-146.0","{""Q0"":""Lark Sparrow""}","Lark Sparrow","New World Sparrows and Allies","899"
"","3577","image-multi-choice","148","1324177","0.0-1.0-147.0","{""Q0"":""Vesper Sparrow""}","Vesper Sparrow","New World Sparrows and Allies","898"
"","2650","image-multi-choice","149","1327834","0.0-1.0-148.0","{""Q0"":""Fox Sparrow""}","Fox Sparrow","New World Sparrows and Allies","901"
"","5122","image-multi-choice","150","1333962","0.0-1.0-149.0","{""Q0"":""Song Sparrow""}","Song Sparrow","New World Sparrows and Allies","902"
"","13470","image-multi-choice","151","1348442","0.0-1.0-150.0","{""Q0"":""Townsend's Warbler""}","Blackburnian Warbler","Wood-Warblers","874"
"","7864","image-multi-choice","152","1357313","0.0-1.0-151.0","{""Q0"":""Orange-crowned Warbler""}","Orange-crowned Warbler","Wood-Warblers","867"
"","3050","image-multi-choice","153","1361370","0.0-1.0-152.0","{""Q0"":""Fox Sparrow""}","Fox Sparrow","New World Sparrows and Allies","901"
"","5287","image-multi-choice","154","1367666","0.0-1.0-153.0","{""Q0"":""Orange-crowned Warbler""}","Orange-crowned Warbler","Wood-Warblers","867"
"","5600","image-multi-choice","155","1374274","0.0-1.0-154.0","{""Q0"":""Townsend's Warbler""}","Townsend's Warbler","Wood-Warblers","881"
"","2672","image-multi-choice","156","1377954","0.0-1.0-155.0","{""Q0"":""Ovenbird""}","Ovenbird","Wood-Warblers","860"
"","8338","image-multi-choice","157","1387299","0.0-1.0-156.0","{""Q0"":""Yellow Warbler""}","Nashville Warbler","Wood-Warblers","868"
"","12169","image-multi-choice","158","1400475","0.0-1.0-157.0","{""Q0"":""Song Sparrow""}","Song Sparrow","New World Sparrows and Allies","902"
"","2477","image-multi-choice","159","1403963","0.0-1.0-158.0","{""Q0"":""Yellow Warbler""}","Yellow Warbler","Wood-Warblers","875"
"","2286","image-multi-choice","160","1407258","0.0-1.0-159.0","{""Q0"":""Fox Sparrow""}","Fox Sparrow","New World Sparrows and Allies","901"
"","2721","image-multi-choice","161","1410986","0.0-1.0-160.0","{""Q0"":""Black-and-white Warbler""}","Black-and-white Warbler","Wood-Warblers","864"
"","5259","image-multi-choice","162","1417251","0.0-1.0-161.0","{""Q0"":""Orange-crowned Warbler""}","Orange-crowned Warbler","Wood-Warblers","867"
"","3718","image-multi-choice","163","1421979","0.0-1.0-162.0","{""Q0"":""American Tree Sparrow""}","American Tree Sparrow","New World Sparrows and Allies","894"
"","4960","image-multi-choice","164","1427946","0.0-1.0-163.0","{""Q0"":""Townsend's Warbler""}","Townsend's Warbler","Wood-Warblers","881"
"","8129","image-multi-choice","165","1437082","0.0-1.0-164.0","{""Q0"":""Song Sparrow""}","Song Sparrow","New World Sparrows and Allies","902"
"","7384","image-multi-choice","166","1445473","0.0-1.0-165.0","{""Q0"":""Orange-crowned Warbler""}","Nashville Warbler","Wood-Warblers","868"
"","8152","image-multi-choice","167","1454634","0.0-1.0-166.0","{""Q0"":""Tennessee Warbler""}","Tennessee Warbler","Wood-Warblers","866"
"","3784","image-multi-choice","168","1459425","0.0-1.0-167.0","{""Q0"":""Chipping Sparrow""}","Chipping Sparrow","New World Sparrows and Allies","769"
"","6083","image-multi-choice","169","1466514","0.0-1.0-168.0","{""Q0"":""Ovenbird""}","Ovenbird","Wood-Warblers","860"
"","2559","image-multi-choice","170","1470082","0.0-1.0-169.0","{""Q0"":""White-throated Sparrow""}","White-throated Sparrow","New World Sparrows and Allies","764"
"","4265","image-multi-choice","171","1475353","0.0-1.0-170.0","{""Q0"":""Fox Sparrow""}","Fox Sparrow","New World Sparrows and Allies","901"
"","4000","image-multi-choice","172","1480361","0.0-1.0-171.0","{""Q0"":""Blackburnian Warbler""}","Blackburnian Warbler","Wood-Warblers","874"
"","4434","image-multi-choice","173","1485802","0.0-1.0-172.0","{""Q0"":""American Tree Sparrow""}","American Tree Sparrow","New World Sparrows and Allies","894"
"","5701","image-multi-choice","174","1492513","0.0-1.0-173.0","{""Q0"":""Swamp Sparrow""}","Swamp Sparrow","New World Sparrows and Allies","904"
"","4650","image-multi-choice","175","1498170","0.0-1.0-174.0","{""Q0"":""Townsend's Warbler""}","Townsend's Warbler","Wood-Warblers","881"
"","11961","image-multi-choice","176","1511138","0.0-1.0-175.0","{""Q0"":""Orange-crowned Warbler""}","Tennessee Warbler","Wood-Warblers","866"
"","2817","image-multi-choice","177","1514962","0.0-1.0-176.0","{""Q0"":""Northern Waterthrush""}","Northern Waterthrush","Wood-Warblers","862"
"","5130","image-multi-choice","178","1521100","0.0-1.0-177.0","{""Q0"":""Swamp Sparrow""}","Swamp Sparrow","New World Sparrows and Allies","904"
"","2892","image-multi-choice","179","1525003","0.0-1.0-178.0","{""Q0"":""Fox Sparrow""}","Fox Sparrow","New World Sparrows and Allies","901"
"","7263","image-multi-choice","180","1695025","0.0-1.0-179.0","{""Q0"":""American Tree Sparrow""}","American Tree Sparrow","New World Sparrows and Allies","894"
"","3570","image-multi-choice","181","1699602","0.0-1.0-180.0","{""Q0"":""Fox Sparrow""}","Fox Sparrow","New World Sparrows and Allies","901"
"","5303","image-multi-choice","182","1705913","0.0-1.0-181.0","{""Q0"":""Vesper Sparrow""}","Vesper Sparrow","New World Sparrows and Allies","898"
"","3842","image-multi-choice","183","1710762","0.0-1.0-182.0","{""Q0"":""Song Sparrow""}","Song Sparrow","New World Sparrows and Allies","902"
"","2945","image-multi-choice","184","1714714","0.0-1.0-183.0","{""Q0"":""Blackburnian Warbler""}","Blackburnian Warbler","Wood-Warblers","874"
"","2417","image-multi-choice","185","1718138","0.0-1.0-184.0","{""Q0"":""White-crowned Sparrow""}","White-crowned Sparrow","New World Sparrows and Allies","766"
"","4199","image-multi-choice","186","1723345","0.0-1.0-185.0","{""Q0"":""American Tree Sparrow""}","American Tree Sparrow","New World Sparrows and Allies","894"
"","2791","image-multi-choice","187","1727145","0.0-1.0-186.0","{""Q0"":""Black-and-white Warbler""}","Black-and-white Warbler","Wood-Warblers","864"
"","3233","image-multi-choice","188","1731386","0.0-1.0-187.0","{""Q0"":""Lark Sparrow""}","Lark Sparrow","New World Sparrows and Allies","899"
"","8616","image-multi-choice","189","1741010","0.0-1.0-188.0","{""Q0"":""Nashville Warbler""}","Nashville Warbler","Wood-Warblers","868"
"","3897","image-multi-choice","190","1745914","0.0-1.0-189.0","{""Q0"":""Northern Waterthrush""}","Northern Waterthrush","Wood-Warblers","862"
"","6689","image-multi-choice","191","1753610","0.0-1.0-190.0","{""Q0"":""Tennessee Warbler""}","Tennessee Warbler","Wood-Warblers","866"
"","6937","image-multi-choice","192","1761554","0.0-1.0-191.0","{""Q0"":""Nashville Warbler""}","Nashville Warbler","Wood-Warblers","868"
"","2666","image-multi-choice","193","1765227","0.0-1.0-192.0","{""Q0"":""Fox Sparrow""}","Fox Sparrow","New World Sparrows and Allies","901"
"","4815","image-multi-choice","194","1771051","0.0-1.0-193.0","{""Q0"":""Blackburnian Warbler""}","Blackburnian Warbler","Wood-Warblers","874"
"","3824","image-multi-choice","195","1775882","0.0-1.0-194.0","{""Q0"":""Swamp Sparrow""}","Swamp Sparrow","New World Sparrows and Allies","904"
"","5801","image-multi-choice","196","1782691","0.0-1.0-195.0","{""Q0"":""Townsend's Warbler""}","Townsend's Warbler","Wood-Warblers","881"
"","9424","image-multi-choice","197","1793122","0.0-1.0-196.0","{""Q0"":""Orange-crowned Warbler""}","Tennessee Warbler","Wood-Warblers","866"
"","2672","image-multi-choice","198","1796802","0.0-1.0-197.0","{""Q0"":""White-crowned Sparrow""}","White-crowned Sparrow","New World Sparrows and Allies","766"
"","2971","image-multi-choice","199","1800779","0.0-1.0-198.0","{""Q0"":""Ovenbird""}","Ovenbird","Wood-Warblers","860"
"","3473","image-multi-choice","200","1805259","0.0-1.0-199.0","{""Q0"":""Vesper Sparrow""}","Vesper Sparrow","New World Sparrows and Allies","898"
"","4600","image-multi-choice","201","1810866","0.0-1.0-200.0","{""Q0"":""Blackburnian Warbler""}","Blackburnian Warbler","Wood-Warblers","874"
"","4629","image-multi-choice","202","1816507","0.0-1.0-201.0","{""Q0"":""Chipping Sparrow""}","Chipping Sparrow","New World Sparrows and Allies","769"
"","42386","image-multi-choice","203","1859899","0.0-1.0-202.0","{""Q0"":""Lincoln's Sparrow""}","Vesper Sparrow","New World Sparrows and Allies","898"
"","3200","image-multi-choice","204","1864108","0.0-1.0-203.0","{""Q0"":""Yellow Warbler""}","Yellow Warbler","Wood-Warblers","875"
"","9018","image-multi-choice","205","1874140","0.0-1.0-204.0","{""Q0"":""Orange-crowned Warbler""}","Orange-crowned Warbler","Wood-Warblers","867"
"","2735","image-multi-choice","206","1877883","0.0-1.0-205.0","{""Q0"":""White-throated Sparrow""}","White-throated Sparrow","New World Sparrows and Allies","764"
"","2830","image-multi-choice","207","1881722","0.0-1.0-206.0","{""Q0"":""American Tree Sparrow""}","American Tree Sparrow","New World Sparrows and Allies","894"
"","6106","image-multi-choice","208","1888835","0.0-1.0-207.0","{""Q0"":""Orange-crowned Warbler""}","Orange-crowned Warbler","Wood-Warblers","867"
"","2698","image-multi-choice","209","1892539","0.0-1.0-208.0","{""Q0"":""Black-and-white Warbler""}","Black-and-white Warbler","Wood-Warblers","864"
"","2894","image-multi-choice","210","1896443","0.0-1.0-209.0","{""Q0"":""Lark Sparrow""}","Lark Sparrow","New World Sparrows and Allies","899"
"","6889","image-multi-choice","211","1904339","0.0-1.0-210.0","{""Q0"":""Chipping Sparrow""}","Chipping Sparrow","New World Sparrows and Allies","769"
"","6737","image-multi-choice","212","1912083","0.0-1.0-211.0","{""Q0"":""Orange-crowned Warbler""}","Orange-crowned Warbler","Wood-Warblers","867"
"","5614","image-multi-choice","213","1918706","0.0-1.0-212.0","{""Q0"":""Yellow Warbler""}","Yellow Warbler","Wood-Warblers","875"
"","4326","image-multi-choice","214","1924042","0.0-1.0-213.0","{""Q0"":""American Tree Sparrow""}","American Tree Sparrow","New World Sparrows and Allies","894"
"","5057","image-multi-choice","215","1930106","0.0-1.0-214.0","{""Q0"":""Vesper Sparrow""}","Vesper Sparrow","New World Sparrows and Allies","898"
"","2526","image-multi-choice","216","1933641","0.0-1.0-215.0","{""Q0"":""Ovenbird""}","Ovenbird","Wood-Warblers","860"
"","2410","image-multi-choice","217","1937057","0.0-1.0-216.0","{""Q0"":""Lark Sparrow""}","Lark Sparrow","New World Sparrows and Allies","899"
"","6480","image-multi-choice","218","1944546","0.0-1.0-217.0","{""Q0"":""Lincoln's Sparrow""}","Lincoln's Sparrow","New World Sparrows and Allies","903"
"","8063","image-multi-choice","219","1953617","0.0-1.0-218.0","{""Q0"":""Chipping Sparrow""}","Chipping Sparrow","New World Sparrows and Allies","769"
"","10178","image-multi-choice","220","1964802","0.0-1.0-219.0","{""Q0"":""Lincoln's Sparrow""}","Lincoln's Sparrow","New World Sparrows and Allies","903"
"","3278","image-multi-choice","221","1969090","0.0-1.0-220.0","{""Q0"":""Northern Waterthrush""}","Northern Waterthrush","Wood-Warblers","862"
"","5527","image-multi-choice","222","1975626","0.0-1.0-221.0","{""Q0"":""Chipping Sparrow""}","Chipping Sparrow","New World Sparrows and Allies","769"
"","7086","image-multi-choice","223","1983721","0.0-1.0-222.0","{""Q0"":""Lincoln's Sparrow""}","Lincoln's Sparrow","New World Sparrows and Allies","903"
"","4426","image-multi-choice","224","1989154","0.0-1.0-223.0","{""Q0"":""Blackburnian Warbler""}","Blackburnian Warbler","Wood-Warblers","874"
"","9554","image-multi-choice","225","1999715","0.0-1.0-224.0","{""Q0"":""Swamp Sparrow""}","Swamp Sparrow","New World Sparrows and Allies","904"
"","5002","image-multi-choice","226","2005724","0.0-1.0-225.0","{""Q0"":""American Tree Sparrow""}","American Tree Sparrow","New World Sparrows and Allies","894"
"","2560","image-multi-choice","227","2009291","0.0-1.0-226.0","{""Q0"":""Fox Sparrow""}","Fox Sparrow","New World Sparrows and Allies","901"
"","3326","image-multi-choice","228","2013627","0.0-1.0-227.0","{""Q0"":""Northern Waterthrush""}","Northern Waterthrush","Wood-Warblers","862"
"","9456","image-multi-choice","229","2024090","0.0-1.0-228.0","{""Q0"":""Nashville Warbler""}","Nashville Warbler","Wood-Warblers","868"
"","3018","image-multi-choice","230","2028115","0.0-1.0-229.0","{""Q0"":""Black-and-white Warbler""}","Black-and-white Warbler","Wood-Warblers","864"
"","3944","image-multi-choice","231","2033067","0.0-1.0-230.0","{""Q0"":""Tennessee Warbler""}","Tennessee Warbler","Wood-Warblers","866"
"","4057","image-multi-choice","232","2038131","0.0-1.0-231.0","{""Q0"":""Townsend's Warbler""}","Townsend's Warbler","Wood-Warblers","881"
"","4265","image-multi-choice","233","2043403","0.0-1.0-232.0","{""Q0"":""Magnolia Warbler""}","Magnolia Warbler","Wood-Warblers","758"
"","2896","image-multi-choice","234","2047306","0.0-1.0-233.0","{""Q0"":""Northern Waterthrush""}","Northern Waterthrush","Wood-Warblers","862"
"","7279","image-multi-choice","235","2055593","0.0-1.0-234.0","{""Q0"":""Orange-crowned Warbler""}","Orange-crowned Warbler","Wood-Warblers","867"
"","2450","image-multi-choice","236","2059049","0.0-1.0-235.0","{""Q0"":""White-throated Sparrow""}","White-throated Sparrow","New World Sparrows and Allies","764"
"","2339","image-multi-choice","237","2062394","0.0-1.0-236.0","{""Q0"":""Yellow Warbler""}","Yellow Warbler","Wood-Warblers","875"
"","2281","image-multi-choice","238","2065682","0.0-1.0-237.0","{""Q0"":""Fox Sparrow""}","Fox Sparrow","New World Sparrows and Allies","901"
"","3801","image-multi-choice","239","2070490","0.0-1.0-238.0","{""Q0"":""Swamp Sparrow""}","Swamp Sparrow","New World Sparrows and Allies","904"
"","3864","image-multi-choice","240","2116106","0.0-1.0-239.0","{""Q0"":""Fox Sparrow""}","Fox Sparrow","New World Sparrows and Allies","901"
"","5984","image-multi-choice","241","2123098","0.0-1.0-240.0","{""Q0"":""Orange-crowned Warbler""}","Orange-crowned Warbler","Wood-Warblers","867"
"","2591","image-multi-choice","242","2126697","0.0-1.0-241.0","{""Q0"":""White-crowned Sparrow""}","White-crowned Sparrow","New World Sparrows and Allies","766"
"","38955","image-multi-choice","243","2166658","0.0-1.0-242.0","{""Q0"":""Lark Sparrow""}","White-throated Sparrow","New World Sparrows and Allies","764"
"","69545","image-multi-choice","244","2237210","0.0-1.0-243.0","{""Q0"":""Song Sparrow""}","Song Sparrow","New World Sparrows and Allies","902"
"","3265","image-multi-choice","245","2241482","0.0-1.0-244.0","{""Q0"":""Lark Sparrow""}","Lark Sparrow","New World Sparrows and Allies","899"
"","3402","image-multi-choice","246","2245890","0.0-1.0-245.0","{""Q0"":""Vesper Sparrow""}","Vesper Sparrow","New World Sparrows and Allies","898"
"","2494","image-multi-choice","247","2249394","0.0-1.0-246.0","{""Q0"":""Lark Sparrow""}","Lark Sparrow","New World Sparrows and Allies","899"
"","2676","image-multi-choice","248","2253082","0.0-1.0-247.0","{""Q0"":""American Tree Sparrow""}","American Tree Sparrow","New World Sparrows and Allies","894"
"","3657","image-multi-choice","249","2257746","0.0-1.0-248.0","{""Q0"":""Black-and-white Warbler""}","Black-and-white Warbler","Wood-Warblers","864"
"","5727","image-multi-choice","250","2264482","0.0-1.0-249.0","{""Q0"":""Lark Sparrow""}","Lark Sparrow","New World Sparrows and Allies","899"
"","3830","image-multi-choice","251","2269321","0.0-1.0-250.0","{""Q0"":""Orange-crowned Warbler""}","Orange-crowned Warbler","Wood-Warblers","867"
"","2922","image-multi-choice","252","2273250","0.0-1.0-251.0","{""Q0"":""Blackburnian Warbler""}","Blackburnian Warbler","Wood-Warblers","874"
"","5473","image-multi-choice","253","2279730","0.0-1.0-252.0","{""Q0"":""Vesper Sparrow""}","Vesper Sparrow","New World Sparrows and Allies","898"
"","7361","image-multi-choice","254","2288100","0.0-1.0-253.0","{""Q0"":""Townsend's Warbler""}","Townsend's Warbler","Wood-Warblers","881"
"","3895","image-multi-choice","255","2293002","0.0-1.0-254.0","{""Q0"":""Swamp Sparrow""}","Swamp Sparrow","New World Sparrows and Allies","904"
"","3322","image-multi-choice","256","2297331","0.0-1.0-255.0","{""Q0"":""Song Sparrow""}","Song Sparrow","New World Sparrows and Allies","902"
"","4885","image-multi-choice","257","2303226","0.0-1.0-256.0","{""Q0"":""Swamp Sparrow""}","Swamp Sparrow","New World Sparrows and Allies","904"
"","2979","image-multi-choice","258","2307211","0.0-1.0-257.0","{""Q0"":""Ovenbird""}","Ovenbird","Wood-Warblers","860"
"","16753","image-multi-choice","259","2324971","0.0-1.0-258.0","{""Q0"":""Black-and-white Warbler""}","Black-and-white Warbler","Wood-Warblers","864"
"","3841","image-multi-choice","260","2329819","0.0-1.0-259.0","{""Q0"":""American Tree Sparrow""}","American Tree Sparrow","New World Sparrows and Allies","894"
"","2224","image-multi-choice","261","2333051","0.0-1.0-260.0","{""Q0"":""Yellow Warbler""}","Yellow Warbler","Wood-Warblers","875"
"","2767","image-multi-choice","262","2336826","0.0-1.0-261.0","{""Q0"":""Vesper Sparrow""}","Vesper Sparrow","New World Sparrows and Allies","898"
"","3263","image-multi-choice","263","2341100","0.0-1.0-262.0","{""Q0"":""Chipping Sparrow""}","Chipping Sparrow","New World Sparrows and Allies","769"
"","5794","image-multi-choice","264","2347907","0.0-1.0-263.0","{""Q0"":""Northern Waterthrush""}","Northern Waterthrush","Wood-Warblers","862"
"","2999","image-multi-choice","265","2351914","0.0-1.0-264.0","{""Q0"":""Song Sparrow""}","Song Sparrow","New World Sparrows and Allies","902"
"","5841","image-multi-choice","266","2358762","0.0-1.0-265.0","{""Q0"":""Orange-crowned Warbler""}","Nashville Warbler","Wood-Warblers","868"
"","3304","image-multi-choice","267","2363074","0.0-1.0-266.0","{""Q0"":""White-throated Sparrow""}","White-throated Sparrow","New World Sparrows and Allies","764"
"","3519","image-multi-choice","268","2367602","0.0-1.0-267.0","{""Q0"":""White-crowned Sparrow""}","White-crowned Sparrow","New World Sparrows and Allies","766"
"","52666","image-multi-choice","269","2421275","0.0-1.0-268.0","{""Q0"":""American Tree Sparrow""}","American Tree Sparrow","New World Sparrows and Allies","894"
"","2951","image-multi-choice","270","2425234","0.0-1.0-269.0","{""Q0"":""White-throated Sparrow""}","White-throated Sparrow","New World Sparrows and Allies","764"
"","3187","image-multi-choice","271","2429427","0.0-1.0-270.0","{""Q0"":""White-crowned Sparrow""}","White-crowned Sparrow","New World Sparrows and Allies","766"
"","2408","image-multi-choice","272","2432843","0.0-1.0-271.0","{""Q0"":""Yellow Warbler""}","Yellow Warbler","Wood-Warblers","875"
"","4376","image-multi-choice","273","2438226","0.0-1.0-272.0","{""Q0"":""Chipping Sparrow""}","Chipping Sparrow","New World Sparrows and Allies","769"
"","3992","image-multi-choice","274","2443226","0.0-1.0-273.0","{""Q0"":""Ovenbird""}","Ovenbird","Wood-Warblers","860"
"","3656","image-multi-choice","275","2447891","0.0-1.0-274.0","{""Q0"":""Northern Waterthrush""}","Northern Waterthrush","Wood-Warblers","862"
"","5368","image-multi-choice","276","2454267","0.0-1.0-275.0","{""Q0"":""Ovenbird""}","Ovenbird","Wood-Warblers","860"
"","5844","image-multi-choice","277","2461122","0.0-1.0-276.0","{""Q0"":""Townsend's Warbler""}","Black-and-white Warbler","Wood-Warblers","864"
"","3777","image-multi-choice","278","2465907","0.0-1.0-277.0","{""Q0"":""Chipping Sparrow""}","Chipping Sparrow","New World Sparrows and Allies","769"
"","2962","image-multi-choice","279","2469875","0.0-1.0-278.0","{""Q0"":""Fox Sparrow""}","Fox Sparrow","New World Sparrows and Allies","901"
"","3128","image-multi-choice","280","2474011","0.0-1.0-279.0","{""Q0"":""Magnolia Warbler""}","Magnolia Warbler","Wood-Warblers","758"
"","2648","image-multi-choice","281","2477666","0.0-1.0-280.0","{""Q0"":""White-crowned Sparrow""}","White-crowned Sparrow","New World Sparrows and Allies","766"
"","5896","image-multi-choice","282","2484571","0.0-1.0-281.0","{""Q0"":""White-throated Sparrow""}","White-throated Sparrow","New World Sparrows and Allies","764"
"","7339","image-multi-choice","283","2492921","0.0-1.0-282.0","{""Q0"":""Swamp Sparrow""}","Swamp Sparrow","New World Sparrows and Allies","904"
"","3082","image-multi-choice","284","2497010","0.0-1.0-283.0","{""Q0"":""Magnolia Warbler""}","Magnolia Warbler","Wood-Warblers","758"
"","7304","image-multi-choice","285","2505322","0.0-1.0-284.0","{""Q0"":""Orange-crowned Warbler""}","Orange-crowned Warbler","Wood-Warblers","867"
"","2664","image-multi-choice","286","2508993","0.0-1.0-285.0","{""Q0"":""Magnolia Warbler""}","Magnolia Warbler","Wood-Warblers","758"
"","3387","image-multi-choice","287","2513393","0.0-1.0-286.0","{""Q0"":""Vesper Sparrow""}","Vesper Sparrow","New World Sparrows and Allies","898"
"","2898","image-multi-choice","288","2517299","0.0-1.0-287.0","{""Q0"":""Northern Waterthrush""}","Northern Waterthrush","Wood-Warblers","862"
"","3496","image-multi-choice","289","2521802","0.0-1.0-288.0","{""Q0"":""Blackburnian Warbler""}","Blackburnian Warbler","Wood-Warblers","874"
"","3693","image-multi-choice","290","2526505","0.0-1.0-289.0","{""Q0"":""Orange-crowned Warbler""}","Tennessee Warbler","Wood-Warblers","866"
"","2334","image-multi-choice","291","2529850","0.0-1.0-290.0","{""Q0"":""Lark Sparrow""}","Lark Sparrow","New World Sparrows and Allies","899"
"","2681","image-multi-choice","292","2533538","0.0-1.0-291.0","{""Q0"":""Black-and-white Warbler""}","Black-and-white Warbler","Wood-Warblers","864"
"","11545","image-multi-choice","293","2546091","0.0-1.0-292.0","{""Q0"":""Song Sparrow""}","Lincoln's Sparrow","New World Sparrows and Allies","903"
"","4289","image-multi-choice","294","2551387","0.0-1.0-293.0","{""Q0"":""Tennessee Warbler""}","Tennessee Warbler","Wood-Warblers","866"
"","2977","image-multi-choice","295","2555371","0.0-1.0-294.0","{""Q0"":""Ovenbird""}","Ovenbird","Wood-Warblers","860"
"","4081","image-multi-choice","296","2560459","0.0-1.0-295.0","{""Q0"":""Vesper Sparrow""}","Vesper Sparrow","New World Sparrows and Allies","898"
"","3093","image-multi-choice","297","2564562","0.0-1.0-296.0","{""Q0"":""Northern Waterthrush""}","Northern Waterthrush","Wood-Warblers","862"
"","7299","image-multi-choice","298","2572867","0.0-1.0-297.0","{""Q0"":""Chipping Sparrow""}","Chipping Sparrow","New World Sparrows and Allies","769"
"","3185","image-multi-choice","299","2577059","0.0-1.0-298.0","{""Q0"":""Lark Sparrow""}","Lark Sparrow","New World Sparrows and Allies","899"
"","2392","image-multi-choice","300","2905221","0.0-1.0-299.0","{""Q0"":""Yellow Warbler""}","Yellow Warbler","Wood-Warblers","875"
"[{""page_index"":0,""viewing_time"":2188}]","2188","instructions","301","2908409","0.0-2.0","","","",""
