[{"view_history":"[{\"page_index\":0,\"viewing_time\":9279}]","rt":9280,"trial_type":"instructions","trial_index":0,"time_elapsed":9282,"internal_node_id":"0.0-0.0"},{"rt":7546,"responses":"{\"Q0\":\"American Tree Sparrow\"}","bird":["American Tree Sparrow"],"family":["New World Sparrows and Allies"],"class":["894"],"trial_type":"image-multi-choice","trial_index":1,"time_elapsed":17853,"internal_node_id":"0.0-1.0-0.0"},{"rt":4666,"responses":"{\"Q0\":\"Tennessee Warbler\"}","bird":["Tennessee Warbler"],"family":["Wood-Warblers"],"class":["866"],"trial_type":"image-multi-choice","trial_index":2,"time_elapsed":23533,"internal_node_id":"0.0-1.0-1.0"},{"rt":5262,"responses":"{\"Q0\":\"White-crowned Sparrow\"}","bird":["White-crowned Sparrow"],"family":["New World Sparrows and Allies"],"class":["766"],"trial_type":"image-multi-choice","trial_index":3,"time_elapsed":29807,"internal_node_id":"0.0-1.0-2.0"},{"rt":5564,"responses":"{\"Q0\":\"Song Sparrow\"}","bird":["American Tree Sparrow"],"family":["New World Sparrows and Allies"],"class":["894"],"trial_type":"image-multi-choice","trial_index":4,"time_elapsed":36381,"internal_node_id":"0.0-1.0-3.0"},{"rt":6182,"responses":"{\"Q0\":\"White-crowned Sparrow\"}","bird":["White-crowned Sparrow"],"family":["New World Sparrows and Allies"],"class":["766"],"trial_type":"image-multi-choice","trial_index":5,"time_elapsed":43573,"internal_node_id":"0.0-1.0-4.0"},{"rt":5394,"responses":"{\"Q0\":\"Fox Sparrow\"}","bird":["Townsend's Warbler"],"family":["Wood-Warblers"],"class":["881"],"trial_type":"image-multi-choice","trial_index":6,"time_elapsed":49980,"internal_node_id":"0.0-1.0-5.0"},{"rt":5633,"responses":"{\"Q0\":\"Song Sparrow\"}","bird":["Vesper Sparrow"],"family":["New World Sparrows and Allies"],"class":["898"],"trial_type":"image-multi-choice","trial_index":7,"time_elapsed":56623,"internal_node_id":"0.0-1.0-6.0"},{"rt":5519,"responses":"{\"Q0\":\"Yellow Warbler\"}","bird":["Nashville Warbler"],"family":["Wood-Warblers"],"class":["868"],"trial_type":"image-multi-choice","trial_index":8,"time_elapsed":63152,"internal_node_id":"0.0-1.0-7.0"},{"rt":6329,"responses":"{\"Q0\":\"Chipping Sparrow\"}","bird":["Northern Waterthrush"],"family":["Wood-Warblers"],"class":["862"],"trial_type":"image-multi-choice","trial_index":9,"time_elapsed":70490,"internal_node_id":"0.0-1.0-8.0"},{"rt":5712,"responses":"{\"Q0\":\"Northern Waterthrush\"}","bird":["Ovenbird"],"family":["Wood-Warblers"],"class":["860"],"trial_type":"image-multi-choice","trial_index":10,"time_elapsed":77212,"internal_node_id":"0.0-1.0-9.0"},{"rt":8929,"responses":"{\"Q0\":\"Swamp Sparrow\"}","bird":["Lincoln's Sparrow"],"family":["New World Sparrows and Allies"],"class":["903"],"trial_type":"image-multi-choice","trial_index":11,"time_elapsed":87151,"internal_node_id":"0.0-1.0-10.0"},{"rt":4913,"responses":"{\"Q0\":\"Vesper Sparrow\"}","bird":["Townsend's Warbler"],"family":["Wood-Warblers"],"class":["881"],"trial_type":"image-multi-choice","trial_index":12,"time_elapsed":93074,"internal_node_id":"0.0-1.0-11.0"},{"rt":4513,"responses":"{\"Q0\":\"Lincoln's Sparrow\"}","bird":["Fox Sparrow"],"family":["New World Sparrows and Allies"],"class":["901"],"trial_type":"image-multi-choice","trial_index":13,"time_elapsed":98596,"internal_node_id":"0.0-1.0-12.0"},{"rt":4895,"responses":"{\"Q0\":\"American Tree Sparrow\"}","bird":["Blackburnian Warbler"],"family":["Wood-Warblers"],"class":["874"],"trial_type":"image-multi-choice","trial_index":14,"time_elapsed":104502,"internal_node_id":"0.0-1.0-13.0"},{"rt":4854,"responses":"{\"Q0\":\"Lark Sparrow\"}","bird":["Vesper Sparrow"],"family":["New World Sparrows and Allies"],"class":["898"],"trial_type":"image-multi-choice","trial_index":15,"time_elapsed":110366,"internal_node_id":"0.0-1.0-14.0"},{"rt":11194,"responses":"{\"Q0\":\"Magnolia Warbler\"}","bird":["Black-and-white Warbler"],"family":["Wood-Warblers"],"class":["864"],"trial_type":"image-multi-choice","trial_index":16,"time_elapsed":122571,"internal_node_id":"0.0-1.0-15.0"},{"rt":6321,"responses":"{\"Q0\":\"Blackburnian Warbler\"}","bird":["Nashville Warbler"],"family":["Wood-Warblers"],"class":["868"],"trial_type":"image-multi-choice","trial_index":17,"time_elapsed":129901,"internal_node_id":"0.0-1.0-16.0"},{"rt":9450,"responses":"{\"Q0\":\"Vesper Sparrow\"}","bird":["Lincoln's Sparrow"],"family":["New World Sparrows and Allies"],"class":["903"],"trial_type":"image-multi-choice","trial_index":18,"time_elapsed":140360,"internal_node_id":"0.0-1.0-17.0"},{"rt":4666,"responses":"{\"Q0\":\"Yellow Warbler\"}","bird":["Nashville Warbler"],"family":["Wood-Warblers"],"class":["868"],"trial_type":"image-multi-choice","trial_index":19,"time_elapsed":146040,"internal_node_id":"0.0-1.0-18.0"},{"rt":9426,"responses":"{\"Q0\":\"Northern Waterthrush\"}","bird":["Lark Sparrow"],"family":["New World Sparrows and Allies"],"class":["899"],"trial_type":"image-multi-choice","trial_index":20,"time_elapsed":156476,"internal_node_id":"0.0-1.0-19.0"},{"rt":9448,"responses":"{\"Q0\":\"Song Sparrow\"}","bird":["Magnolia Warbler"],"family":["Wood-Warblers"],"class":["758"],"trial_type":"image-multi-choice","trial_index":21,"time_elapsed":166936,"internal_node_id":"0.0-1.0-20.0"},{"rt":7664,"responses":"{\"Q0\":\"White-crowned Sparrow\"}","bird":["Townsend's Warbler"],"family":["Wood-Warblers"],"class":["881"],"trial_type":"image-multi-choice","trial_index":22,"time_elapsed":175609,"internal_node_id":"0.0-1.0-21.0"},{"rt":7657,"responses":"{\"Q0\":\"Lark Sparrow\"}","bird":["Swamp Sparrow"],"family":["New World Sparrows and Allies"],"class":["904"],"trial_type":"image-multi-choice","trial_index":23,"time_elapsed":184276,"internal_node_id":"0.0-1.0-22.0"},{"rt":5395,"responses":"{\"Q0\":\"Townsend's Warbler\"}","bird":["Tennessee Warbler"],"family":["Wood-Warblers"],"class":["866"],"trial_type":"image-multi-choice","trial_index":24,"time_elapsed":190680,"internal_node_id":"0.0-1.0-23.0"},{"rt":6446,"responses":"{\"Q0\":\"Chipping Sparrow\"}","bird":["Ovenbird"],"family":["Wood-Warblers"],"class":["860"],"trial_type":"image-multi-choice","trial_index":25,"time_elapsed":198134,"internal_node_id":"0.0-1.0-24.0"},{"rt":3950,"responses":"{\"Q0\":\"White-throated Sparrow\"}","bird":["White-crowned Sparrow"],"family":["New World Sparrows and Allies"],"class":["766"],"trial_type":"image-multi-choice","trial_index":26,"time_elapsed":203096,"internal_node_id":"0.0-1.0-25.0"},{"rt":11911,"responses":"{\"Q0\":\"Lark Sparrow\"}","bird":["Vesper Sparrow"],"family":["New World Sparrows and Allies"],"class":["898"],"trial_type":"image-multi-choice","trial_index":27,"time_elapsed":216016,"internal_node_id":"0.0-1.0-26.0"},{"rt":7652,"responses":"{\"Q0\":\"Blackburnian Warbler\"}","bird":["Orange-crowned Warbler"],"family":["Wood-Warblers"],"class":["867"],"trial_type":"image-multi-choice","trial_index":28,"time_elapsed":224680,"internal_node_id":"0.0-1.0-27.0"},{"rt":6022,"responses":"{\"Q0\":\"American Tree Sparrow\"}","bird":["American Tree Sparrow"],"family":["New World Sparrows and Allies"],"class":["894"],"trial_type":"image-multi-choice","trial_index":29,"time_elapsed":231712,"internal_node_id":"0.0-1.0-28.0"},{"rt":8590,"responses":"{\"Q0\":\"Magnolia Warbler\"}","bird":["Tennessee Warbler"],"family":["Wood-Warblers"],"class":["866"],"trial_type":"image-multi-choice","trial_index":30,"time_elapsed":241311,"internal_node_id":"0.0-1.0-29.0"},{"rt":13110,"responses":"{\"Q0\":\"Tennessee Warbler\"}","bird":["Magnolia Warbler"],"family":["Wood-Warblers"],"class":["758"],"trial_type":"image-multi-choice","trial_index":31,"time_elapsed":255430,"internal_node_id":"0.0-1.0-30.0"},{"rt":11180,"responses":"{\"Q0\":\"Lincoln's Sparrow\"}","bird":["Blackburnian Warbler"],"family":["Wood-Warblers"],"class":["874"],"trial_type":"image-multi-choice","trial_index":32,"time_elapsed":267618,"internal_node_id":"0.0-1.0-31.0"},{"rt":7488,"responses":"{\"Q0\":\"Tennessee Warbler\"}","bird":["Tennessee Warbler"],"family":["Wood-Warblers"],"class":["866"],"trial_type":"image-multi-choice","trial_index":33,"time_elapsed":276117,"internal_node_id":"0.0-1.0-32.0"},{"rt":7098,"responses":"{\"Q0\":\"Song Sparrow\"}","bird":["Vesper Sparrow"],"family":["New World Sparrows and Allies"],"class":["898"],"trial_type":"image-multi-choice","trial_index":34,"time_elapsed":284224,"internal_node_id":"0.0-1.0-33.0"},{"rt":13061,"responses":"{\"Q0\":\"Nashville Warbler\"}","bird":["Orange-crowned Warbler"],"family":["Wood-Warblers"],"class":["867"],"trial_type":"image-multi-choice","trial_index":35,"time_elapsed":298294,"internal_node_id":"0.0-1.0-34.0"},{"rt":4802,"responses":"{\"Q0\":\"White-crowned Sparrow\"}","bird":["White-crowned Sparrow"],"family":["New World Sparrows and Allies"],"class":["766"],"trial_type":"image-multi-choice","trial_index":36,"time_elapsed":304104,"internal_node_id":"0.0-1.0-35.0"},{"rt":5282,"responses":"{\"Q0\":\"Northern Waterthrush\"}","bird":["Fox Sparrow"],"family":["New World Sparrows and Allies"],"class":["901"],"trial_type":"image-multi-choice","trial_index":37,"time_elapsed":310396,"internal_node_id":"0.0-1.0-36.0"},{"rt":5937,"responses":"{\"Q0\":\"Orange-crowned Warbler\"}","bird":["Swamp Sparrow"],"family":["New World Sparrows and Allies"],"class":["904"],"trial_type":"image-multi-choice","trial_index":38,"time_elapsed":317342,"internal_node_id":"0.0-1.0-37.0"},{"rt":8891,"responses":"{\"Q0\":\"Magnolia Warbler\"}","bird":["Yellow Warbler"],"family":["Wood-Warblers"],"class":["875"],"trial_type":"image-multi-choice","trial_index":39,"time_elapsed":327243,"internal_node_id":"0.0-1.0-38.0"},{"rt":6006,"responses":"{\"Q0\":\"Black-and-white Warbler\"}","bird":["Black-and-white Warbler"],"family":["Wood-Warblers"],"class":["864"],"trial_type":"image-multi-choice","trial_index":40,"time_elapsed":334258,"internal_node_id":"0.0-1.0-39.0"},{"rt":14218,"responses":"{\"Q0\":\"Vesper Sparrow\"}","bird":["Fox Sparrow"],"family":["New World Sparrows and Allies"],"class":["901"],"trial_type":"image-multi-choice","trial_index":41,"time_elapsed":349485,"internal_node_id":"0.0-1.0-40.0"},{"rt":7393,"responses":"{\"Q0\":\"Swamp Sparrow\"}","bird":["Northern Waterthrush"],"family":["Wood-Warblers"],"class":["862"],"trial_type":"image-multi-choice","trial_index":42,"time_elapsed":357889,"internal_node_id":"0.0-1.0-41.0"},{"rt":4302,"responses":"{\"Q0\":\"Ovenbird\"}","bird":["Nashville Warbler"],"family":["Wood-Warblers"],"class":["868"],"trial_type":"image-multi-choice","trial_index":43,"time_elapsed":363199,"internal_node_id":"0.0-1.0-42.0"},{"rt":6064,"responses":"{\"Q0\":\"Blackburnian Warbler\"}","bird":["Blackburnian Warbler"],"family":["Wood-Warblers"],"class":["874"],"trial_type":"image-multi-choice","trial_index":44,"time_elapsed":370272,"internal_node_id":"0.0-1.0-43.0"},{"rt":12221,"responses":"{\"Q0\":\"Tennessee Warbler\"}","bird":["Orange-crowned Warbler"],"family":["Wood-Warblers"],"class":["867"],"trial_type":"image-multi-choice","trial_index":45,"time_elapsed":383503,"internal_node_id":"0.0-1.0-44.0"},{"rt":5542,"responses":"{\"Q0\":\"American Tree Sparrow\"}","bird":["Blackburnian Warbler"],"family":["Wood-Warblers"],"class":["874"],"trial_type":"image-multi-choice","trial_index":46,"time_elapsed":390053,"internal_node_id":"0.0-1.0-45.0"},{"rt":4706,"responses":"{\"Q0\":\"Townsend's Warbler\"}","bird":["Nashville Warbler"],"family":["Wood-Warblers"],"class":["868"],"trial_type":"image-multi-choice","trial_index":47,"time_elapsed":395767,"internal_node_id":"0.0-1.0-46.0"},{"rt":7016,"responses":"{\"Q0\":\"Northern Waterthrush\"}","bird":["Northern Waterthrush"],"family":["Wood-Warblers"],"class":["862"],"trial_type":"image-multi-choice","trial_index":48,"time_elapsed":403792,"internal_node_id":"0.0-1.0-47.0"},{"rt":11502,"responses":"{\"Q0\":\"Song Sparrow\"}","bird":["Fox Sparrow"],"family":["New World Sparrows and Allies"],"class":["901"],"trial_type":"image-multi-choice","trial_index":49,"time_elapsed":416304,"internal_node_id":"0.0-1.0-48.0"},{"rt":7429,"responses":"{\"Q0\":\"Townsend's Warbler\"}","bird":["Swamp Sparrow"],"family":["New World Sparrows and Allies"],"class":["904"],"trial_type":"image-multi-choice","trial_index":50,"time_elapsed":424742,"internal_node_id":"0.0-1.0-49.0"},{"rt":7150,"responses":"{\"Q0\":\"Magnolia Warbler\"}","bird":["Nashville Warbler"],"family":["Wood-Warblers"],"class":["868"],"trial_type":"image-multi-choice","trial_index":51,"time_elapsed":432901,"internal_node_id":"0.0-1.0-50.0"},{"rt":6716,"responses":"{\"Q0\":\"White-throated Sparrow\"}","bird":["Black-and-white Warbler"],"family":["Wood-Warblers"],"class":["864"],"trial_type":"image-multi-choice","trial_index":52,"time_elapsed":440626,"internal_node_id":"0.0-1.0-51.0"},{"rt":10113,"responses":"{\"Q0\":\"Song Sparrow\"}","bird":["American Tree Sparrow"],"family":["New World Sparrows and Allies"],"class":["894"],"trial_type":"image-multi-choice","trial_index":53,"time_elapsed":451750,"internal_node_id":"0.0-1.0-52.0"},{"rt":9301,"responses":"{\"Q0\":\"Fox Sparrow\"}","bird":["Black-and-white Warbler"],"family":["Wood-Warblers"],"class":["864"],"trial_type":"image-multi-choice","trial_index":54,"time_elapsed":462060,"internal_node_id":"0.0-1.0-53.0"},{"rt":16433,"responses":"{\"Q0\":\"Vesper Sparrow\"}","bird":["Townsend's Warbler"],"family":["Wood-Warblers"],"class":["881"],"trial_type":"image-multi-choice","trial_index":55,"time_elapsed":479502,"internal_node_id":"0.0-1.0-54.0"},{"rt":12645,"responses":"{\"Q0\":\"Lincoln's Sparrow\"}","bird":["Lark Sparrow"],"family":["New World Sparrows and Allies"],"class":["899"],"trial_type":"image-multi-choice","trial_index":56,"time_elapsed":493157,"internal_node_id":"0.0-1.0-55.0"},{"rt":4684,"responses":"{\"Q0\":\"Northern Waterthrush\"}","bird":["Ovenbird"],"family":["Wood-Warblers"],"class":["860"],"trial_type":"image-multi-choice","trial_index":57,"time_elapsed":498851,"internal_node_id":"0.0-1.0-56.0"},{"rt":7622,"responses":"{\"Q0\":\"Swamp Sparrow\"}","bird":["Song Sparrow"],"family":["New World Sparrows and Allies"],"class":["902"],"trial_type":"image-multi-choice","trial_index":58,"time_elapsed":507482,"internal_node_id":"0.0-1.0-57.0"},{"rt":5820,"responses":"{\"Q0\":\"Orange-crowned Warbler\"}","bird":["Chipping Sparrow"],"family":["New World Sparrows and Allies"],"class":["769"],"trial_type":"image-multi-choice","trial_index":59,"time_elapsed":514312,"internal_node_id":"0.0-1.0-58.0"},{"rt":8859,"responses":"{\"Q0\":\"Lark Sparrow\"}","bird":["Black-and-white Warbler"],"family":["Wood-Warblers"],"class":["864"],"trial_type":"image-multi-choice","trial_index":60,"time_elapsed":545928,"internal_node_id":"0.0-1.0-59.0"},{"rt":6393,"responses":"{\"Q0\":\"American Tree Sparrow\"}","bird":["Chipping Sparrow"],"family":["New World Sparrows and Allies"],"class":["769"],"trial_type":"image-multi-choice","trial_index":61,"time_elapsed":553331,"internal_node_id":"0.0-1.0-60.0"},{"rt":8258,"responses":"{\"Q0\":\"Lincoln's Sparrow\"}","bird":["Swamp Sparrow"],"family":["New World Sparrows and Allies"],"class":["904"],"trial_type":"image-multi-choice","trial_index":62,"time_elapsed":562598,"internal_node_id":"0.0-1.0-61.0"},{"rt":11880,"responses":"{\"Q0\":\"Nashville Warbler\"}","bird":["Nashville Warbler"],"family":["Wood-Warblers"],"class":["868"],"trial_type":"image-multi-choice","trial_index":63,"time_elapsed":575487,"internal_node_id":"0.0-1.0-62.0"},{"rt":6964,"responses":"{\"Q0\":\"Swamp Sparrow\"}","bird":["Lincoln's Sparrow"],"family":["New World Sparrows and Allies"],"class":["903"],"trial_type":"image-multi-choice","trial_index":64,"time_elapsed":583463,"internal_node_id":"0.0-1.0-63.0"},{"rt":4937,"responses":"{\"Q0\":\"White-throated Sparrow\"}","bird":["Black-and-white Warbler"],"family":["Wood-Warblers"],"class":["864"],"trial_type":"image-multi-choice","trial_index":65,"time_elapsed":589410,"internal_node_id":"0.0-1.0-64.0"},{"rt":5677,"responses":"{\"Q0\":\"Ovenbird\"}","bird":["Fox Sparrow"],"family":["New World Sparrows and Allies"],"class":["901"],"trial_type":"image-multi-choice","trial_index":66,"time_elapsed":596097,"internal_node_id":"0.0-1.0-65.0"},{"rt":5872,"responses":"{\"Q0\":\"Swamp Sparrow\"}","bird":["Townsend's Warbler"],"family":["Wood-Warblers"],"class":["881"],"trial_type":"image-multi-choice","trial_index":67,"time_elapsed":602979,"internal_node_id":"0.0-1.0-66.0"},{"rt":9987,"responses":"{\"Q0\":\"Magnolia Warbler\"}","bird":["Yellow Warbler"],"family":["Wood-Warblers"],"class":["875"],"trial_type":"image-multi-choice","trial_index":68,"time_elapsed":613976,"internal_node_id":"0.0-1.0-67.0"},{"rt":6093,"responses":"{\"Q0\":\"Blackburnian Warbler\"}","bird":["Tennessee Warbler"],"family":["Wood-Warblers"],"class":["866"],"trial_type":"image-multi-choice","trial_index":69,"time_elapsed":621078,"internal_node_id":"0.0-1.0-68.0"},{"rt":8804,"responses":"{\"Q0\":\"Lincoln's Sparrow\"}","bird":["Ovenbird"],"family":["Wood-Warblers"],"class":["860"],"trial_type":"image-multi-choice","trial_index":70,"time_elapsed":630891,"internal_node_id":"0.0-1.0-69.0"},{"rt":5225,"responses":"{\"Q0\":\"Song Sparrow\"}","bird":["Townsend's Warbler"],"family":["Wood-Warblers"],"class":["881"],"trial_type":"image-multi-choice","trial_index":71,"time_elapsed":637125,"internal_node_id":"0.0-1.0-70.0"},{"rt":5432,"responses":"{\"Q0\":\"Black-and-white Warbler\"}","bird":["Black-and-white Warbler"],"family":["Wood-Warblers"],"class":["864"],"trial_type":"image-multi-choice","trial_index":72,"time_elapsed":643567,"internal_node_id":"0.0-1.0-71.0"},{"rt":7116,"responses":"{\"Q0\":\"White-throated Sparrow\"}","bird":["Song Sparrow"],"family":["New World Sparrows and Allies"],"class":["902"],"trial_type":"image-multi-choice","trial_index":73,"time_elapsed":651692,"internal_node_id":"0.0-1.0-72.0"},{"rt":6757,"responses":"{\"Q0\":\"Fox Sparrow\"}","bird":["Northern Waterthrush"],"family":["Wood-Warblers"],"class":["862"],"trial_type":"image-multi-choice","trial_index":74,"time_elapsed":659460,"internal_node_id":"0.0-1.0-73.0"},{"rt":6383,"responses":"{\"Q0\":\"Northern Waterthrush\"}","bird":["Swamp Sparrow"],"family":["New World Sparrows and Allies"],"class":["904"],"trial_type":"image-multi-choice","trial_index":75,"time_elapsed":666853,"internal_node_id":"0.0-1.0-74.0"},{"rt":7827,"responses":"{\"Q0\":\"Chipping Sparrow\"}","bird":["White-crowned Sparrow"],"family":["New World Sparrows and Allies"],"class":["766"],"trial_type":"image-multi-choice","trial_index":76,"time_elapsed":675690,"internal_node_id":"0.0-1.0-75.0"},{"rt":5078,"responses":"{\"Q0\":\"White-throated Sparrow\"}","bird":["White-throated Sparrow"],"family":["New World Sparrows and Allies"],"class":["764"],"trial_type":"image-multi-choice","trial_index":77,"time_elapsed":681779,"internal_node_id":"0.0-1.0-76.0"},{"rt":3567,"responses":"{\"Q0\":\"White-crowned Sparrow\"}","bird":["Townsend's Warbler"],"family":["Wood-Warblers"],"class":["881"],"trial_type":"image-multi-choice","trial_index":78,"time_elapsed":686356,"internal_node_id":"0.0-1.0-77.0"},{"rt":5221,"responses":"{\"Q0\":\"Townsend's Warbler\"}","bird":["Vesper Sparrow"],"family":["New World Sparrows and Allies"],"class":["898"],"trial_type":"image-multi-choice","trial_index":79,"time_elapsed":692586,"internal_node_id":"0.0-1.0-78.0"},{"rt":10946,"responses":"{\"Q0\":\"Lincoln's Sparrow\"}","bird":["White-throated Sparrow"],"family":["New World Sparrows and Allies"],"class":["764"],"trial_type":"image-multi-choice","trial_index":80,"time_elapsed":704541,"internal_node_id":"0.0-1.0-79.0"},{"rt":10955,"responses":"{\"Q0\":\"Swamp Sparrow\"}","bird":["Northern Waterthrush"],"family":["Wood-Warblers"],"class":["862"],"trial_type":"image-multi-choice","trial_index":81,"time_elapsed":716505,"internal_node_id":"0.0-1.0-80.0"},{"rt":7057,"responses":"{\"Q0\":\"Magnolia Warbler\"}","bird":["Yellow Warbler"],"family":["Wood-Warblers"],"class":["875"],"trial_type":"image-multi-choice","trial_index":82,"time_elapsed":724572,"internal_node_id":"0.0-1.0-81.0"},{"rt":4049,"responses":"{\"Q0\":\"Ovenbird\"}","bird":["Nashville Warbler"],"family":["Wood-Warblers"],"class":["868"],"trial_type":"image-multi-choice","trial_index":83,"time_elapsed":729629,"internal_node_id":"0.0-1.0-82.0"},{"rt":7147,"responses":"{\"Q0\":\"Chipping Sparrow\"}","bird":["Lark Sparrow"],"family":["New World Sparrows and Allies"],"class":["899"],"trial_type":"image-multi-choice","trial_index":84,"time_elapsed":737785,"internal_node_id":"0.0-1.0-83.0"},{"rt":3463,"responses":"{\"Q0\":\"Yellow Warbler\"}","bird":["Orange-crowned Warbler"],"family":["Wood-Warblers"],"class":["867"],"trial_type":"image-multi-choice","trial_index":85,"time_elapsed":742258,"internal_node_id":"0.0-1.0-84.0"},{"rt":5299,"responses":"{\"Q0\":\"Ovenbird\"}","bird":["Nashville Warbler"],"family":["Wood-Warblers"],"class":["868"],"trial_type":"image-multi-choice","trial_index":86,"time_elapsed":748567,"internal_node_id":"0.0-1.0-85.0"},{"rt":4718,"responses":"{\"Q0\":\"Black-and-white Warbler\"}","bird":["Black-and-white Warbler"],"family":["Wood-Warblers"],"class":["864"],"trial_type":"image-multi-choice","trial_index":87,"time_elapsed":754293,"internal_node_id":"0.0-1.0-86.0"},{"rt":7550,"responses":"{\"Q0\":\"Nashville Warbler\"}","bird":["Nashville Warbler"],"family":["Wood-Warblers"],"class":["868"],"trial_type":"image-multi-choice","trial_index":88,"time_elapsed":762854,"internal_node_id":"0.0-1.0-87.0"},{"rt":9462,"responses":"{\"Q0\":\"Lark Sparrow\"}","bird":["Ovenbird"],"family":["Wood-Warblers"],"class":["860"],"trial_type":"image-multi-choice","trial_index":89,"time_elapsed":773326,"internal_node_id":"0.0-1.0-88.0"},{"rt":5304,"responses":"{\"Q0\":\"Blackburnian Warbler\"}","bird":["Black-and-white Warbler"],"family":["Wood-Warblers"],"class":["864"],"trial_type":"image-multi-choice","trial_index":90,"time_elapsed":779640,"internal_node_id":"0.0-1.0-89.0"},{"rt":4641,"responses":"{\"Q0\":\"Song Sparrow\"}","bird":["Chipping Sparrow"],"family":["New World Sparrows and Allies"],"class":["769"],"trial_type":"image-multi-choice","trial_index":91,"time_elapsed":785289,"internal_node_id":"0.0-1.0-90.0"},{"rt":5804,"responses":"{\"Q0\":\"Tennessee Warbler\"}","bird":["Tennessee Warbler"],"family":["Wood-Warblers"],"class":["866"],"trial_type":"image-multi-choice","trial_index":92,"time_elapsed":792103,"internal_node_id":"0.0-1.0-91.0"},{"rt":6517,"responses":"{\"Q0\":\"Blackburnian Warbler\"}","bird":["White-throated Sparrow"],"family":["New World Sparrows and Allies"],"class":["764"],"trial_type":"image-multi-choice","trial_index":93,"time_elapsed":799630,"internal_node_id":"0.0-1.0-92.0"},{"rt":6498,"responses":"{\"Q0\":\"Fox Sparrow\"}","bird":["Song Sparrow"],"family":["New World Sparrows and Allies"],"class":["902"],"trial_type":"image-multi-choice","trial_index":94,"time_elapsed":807138,"internal_node_id":"0.0-1.0-93.0"},{"rt":5415,"responses":"{\"Q0\":\"Black-and-white Warbler\"}","bird":["Blackburnian Warbler"],"family":["Wood-Warblers"],"class":["874"],"trial_type":"image-multi-choice","trial_index":95,"time_elapsed":813562,"internal_node_id":"0.0-1.0-94.0"},{"rt":5724,"responses":"{\"Q0\":\"American Tree Sparrow\"}","bird":["American Tree Sparrow"],"family":["New World Sparrows and Allies"],"class":["894"],"trial_type":"image-multi-choice","trial_index":96,"time_elapsed":820295,"internal_node_id":"0.0-1.0-95.0"},{"rt":3946,"responses":"{\"Q0\":\"White-throated Sparrow\"}","bird":["White-throated Sparrow"],"family":["New World Sparrows and Allies"],"class":["764"],"trial_type":"image-multi-choice","trial_index":97,"time_elapsed":825251,"internal_node_id":"0.0-1.0-96.0"},{"rt":4339,"responses":"{\"Q0\":\"Ovenbird\"}","bird":["Orange-crowned Warbler"],"family":["Wood-Warblers"],"class":["867"],"trial_type":"image-multi-choice","trial_index":98,"time_elapsed":830598,"internal_node_id":"0.0-1.0-97.0"},{"rt":4949,"responses":"{\"Q0\":\"Yellow Warbler\"}","bird":["Yellow Warbler"],"family":["Wood-Warblers"],"class":["875"],"trial_type":"image-multi-choice","trial_index":99,"time_elapsed":836560,"internal_node_id":"0.0-1.0-98.0"},{"rt":8349,"responses":"{\"Q0\":\"Lincoln's Sparrow\"}","bird":["Fox Sparrow"],"family":["New World Sparrows and Allies"],"class":["901"],"trial_type":"image-multi-choice","trial_index":100,"time_elapsed":845918,"internal_node_id":"0.0-1.0-99.0"},{"rt":6973,"responses":"{\"Q0\":\"Song Sparrow\"}","bird":["Chipping Sparrow"],"family":["New World Sparrows and Allies"],"class":["769"],"trial_type":"image-multi-choice","trial_index":101,"time_elapsed":853900,"internal_node_id":"0.0-1.0-100.0"},{"rt":11768,"responses":"{\"Q0\":\"Nashville Warbler\"}","bird":["Northern Waterthrush"],"family":["Wood-Warblers"],"class":["862"],"trial_type":"image-multi-choice","trial_index":102,"time_elapsed":866677,"internal_node_id":"0.0-1.0-101.0"},{"rt":8639,"responses":"{\"Q0\":\"Tennessee Warbler\"}","bird":["Swamp Sparrow"],"family":["New World Sparrows and Allies"],"class":["904"],"trial_type":"image-multi-choice","trial_index":103,"time_elapsed":876325,"internal_node_id":"0.0-1.0-102.0"},{"rt":8407,"responses":"{\"Q0\":\"Chipping Sparrow\"}","bird":["Northern Waterthrush"],"family":["Wood-Warblers"],"class":["862"],"trial_type":"image-multi-choice","trial_index":104,"time_elapsed":885741,"internal_node_id":"0.0-1.0-103.0"},{"rt":8045,"responses":"{\"Q0\":\"Townsend's Warbler\"}","bird":["Yellow Warbler"],"family":["Wood-Warblers"],"class":["875"],"trial_type":"image-multi-choice","trial_index":105,"time_elapsed":894795,"internal_node_id":"0.0-1.0-104.0"},{"rt":6253,"responses":"{\"Q0\":\"Orange-crowned Warbler\"}","bird":["Magnolia Warbler"],"family":["Wood-Warblers"],"class":["758"],"trial_type":"image-multi-choice","trial_index":106,"time_elapsed":902058,"internal_node_id":"0.0-1.0-105.0"},{"rt":7721,"responses":"{\"Q0\":\"Lark Sparrow\"}","bird":["Townsend's Warbler"],"family":["Wood-Warblers"],"class":["881"],"trial_type":"image-multi-choice","trial_index":107,"time_elapsed":910787,"internal_node_id":"0.0-1.0-106.0"},{"rt":9734,"responses":"{\"Q0\":\"Lincoln's Sparrow\"}","bird":["Swamp Sparrow"],"family":["New World Sparrows and Allies"],"class":["904"],"trial_type":"image-multi-choice","trial_index":108,"time_elapsed":921531,"internal_node_id":"0.0-1.0-107.0"},{"rt":8844,"responses":"{\"Q0\":\"Swamp Sparrow\"}","bird":["Fox Sparrow"],"family":["New World Sparrows and Allies"],"class":["901"],"trial_type":"image-multi-choice","trial_index":109,"time_elapsed":931384,"internal_node_id":"0.0-1.0-108.0"},{"rt":6694,"responses":"{\"Q0\":\"Magnolia Warbler\"}","bird":["Yellow Warbler"],"family":["Wood-Warblers"],"class":["875"],"trial_type":"image-multi-choice","trial_index":110,"time_elapsed":939089,"internal_node_id":"0.0-1.0-109.0"},{"rt":4324,"responses":"{\"Q0\":\"Swamp Sparrow\"}","bird":["Lincoln's Sparrow"],"family":["New World Sparrows and Allies"],"class":["903"],"trial_type":"image-multi-choice","trial_index":111,"time_elapsed":944422,"internal_node_id":"0.0-1.0-110.0"},{"rt":6296,"responses":"{\"Q0\":\"American Tree Sparrow\"}","bird":["Townsend's Warbler"],"family":["Wood-Warblers"],"class":["881"],"trial_type":"image-multi-choice","trial_index":112,"time_elapsed":951727,"internal_node_id":"0.0-1.0-111.0"},{"rt":3974,"responses":"{\"Q0\":\"White-crowned Sparrow\"}","bird":["White-crowned Sparrow"],"family":["New World Sparrows and Allies"],"class":["766"],"trial_type":"image-multi-choice","trial_index":113,"time_elapsed":956711,"internal_node_id":"0.0-1.0-112.0"},{"rt":13440,"responses":"{\"Q0\":\"Lark Sparrow\"}","bird":["Blackburnian Warbler"],"family":["Wood-Warblers"],"class":["874"],"trial_type":"image-multi-choice","trial_index":114,"time_elapsed":971159,"internal_node_id":"0.0-1.0-113.0"},{"rt":5824,"responses":"{\"Q0\":\"Magnolia Warbler\"}","bird":["Nashville Warbler"],"family":["Wood-Warblers"],"class":["868"],"trial_type":"image-multi-choice","trial_index":115,"time_elapsed":977992,"internal_node_id":"0.0-1.0-114.0"},{"rt":6823,"responses":"{\"Q0\":\"Nashville Warbler\"}","bird":["Tennessee Warbler"],"family":["Wood-Warblers"],"class":["866"],"trial_type":"image-multi-choice","trial_index":116,"time_elapsed":985824,"internal_node_id":"0.0-1.0-115.0"},{"rt":8000,"responses":"{\"Q0\":\"Swamp Sparrow\"}","bird":["Vesper Sparrow"],"family":["New World Sparrows and Allies"],"class":["898"],"trial_type":"image-multi-choice","trial_index":117,"time_elapsed":994834,"internal_node_id":"0.0-1.0-116.0"},{"rt":5442,"responses":"{\"Q0\":\"Lincoln's Sparrow\"}","bird":["Swamp Sparrow"],"family":["New World Sparrows and Allies"],"class":["904"],"trial_type":"image-multi-choice","trial_index":118,"time_elapsed":1001285,"internal_node_id":"0.0-1.0-117.0"},{"rt":4479,"responses":"{\"Q0\":\"White-crowned Sparrow\"}","bird":["White-crowned Sparrow"],"family":["New World Sparrows and Allies"],"class":["766"],"trial_type":"image-multi-choice","trial_index":119,"time_elapsed":1006773,"internal_node_id":"0.0-1.0-118.0"},{"rt":5592,"responses":"{\"Q0\":\"Black-and-white Warbler\"}","bird":["Blackburnian Warbler"],"family":["Wood-Warblers"],"class":["874"],"trial_type":"image-multi-choice","trial_index":120,"time_elapsed":1021105,"internal_node_id":"0.0-1.0-119.0"},{"rt":5831,"responses":"{\"Q0\":\"Blackburnian Warbler\"}","bird":["Fox Sparrow"],"family":["New World Sparrows and Allies"],"class":["901"],"trial_type":"image-multi-choice","trial_index":121,"time_elapsed":1027950,"internal_node_id":"0.0-1.0-120.0"},{"rt":4559,"responses":"{\"Q0\":\"Swamp Sparrow\"}","bird":["Vesper Sparrow"],"family":["New World Sparrows and Allies"],"class":["898"],"trial_type":"image-multi-choice","trial_index":122,"time_elapsed":1033518,"internal_node_id":"0.0-1.0-121.0"},{"rt":4139,"responses":"{\"Q0\":\"Yellow Warbler\"}","bird":["Yellow Warbler"],"family":["Wood-Warblers"],"class":["875"],"trial_type":"image-multi-choice","trial_index":123,"time_elapsed":1038667,"internal_node_id":"0.0-1.0-122.0"},{"rt":7073,"responses":"{\"Q0\":\"Swamp Sparrow\"}","bird":["Song Sparrow"],"family":["New World Sparrows and Allies"],"class":["902"],"trial_type":"image-multi-choice","trial_index":124,"time_elapsed":1046752,"internal_node_id":"0.0-1.0-123.0"},{"rt":5206,"responses":"{\"Q0\":\"Nashville Warbler\"}","bird":["Townsend's Warbler"],"family":["Wood-Warblers"],"class":["881"],"trial_type":"image-multi-choice","trial_index":125,"time_elapsed":1052966,"internal_node_id":"0.0-1.0-124.0"},{"rt":10005,"responses":"{\"Q0\":\"Fox Sparrow\"}","bird":["White-crowned Sparrow"],"family":["New World Sparrows and Allies"],"class":["766"],"trial_type":"image-multi-choice","trial_index":126,"time_elapsed":1063981,"internal_node_id":"0.0-1.0-125.0"},{"rt":5249,"responses":"{\"Q0\":\"Vesper Sparrow\"}","bird":["Song Sparrow"],"family":["New World Sparrows and Allies"],"class":["902"],"trial_type":"image-multi-choice","trial_index":127,"time_elapsed":1070239,"internal_node_id":"0.0-1.0-126.0"},{"rt":9972,"responses":"{\"Q0\":\"Chipping Sparrow\"}","bird":["Ovenbird"],"family":["Wood-Warblers"],"class":["860"],"trial_type":"image-multi-choice","trial_index":128,"time_elapsed":1081222,"internal_node_id":"0.0-1.0-127.0"},{"rt":8508,"responses":"{\"Q0\":\"Song Sparrow\"}","bird":["Magnolia Warbler"],"family":["Wood-Warblers"],"class":["758"],"trial_type":"image-multi-choice","trial_index":129,"time_elapsed":1090739,"internal_node_id":"0.0-1.0-128.0"},{"rt":11764,"responses":"{\"Q0\":\"Swamp Sparrow\"}","bird":["Swamp Sparrow"],"family":["New World Sparrows and Allies"],"class":["904"],"trial_type":"image-multi-choice","trial_index":130,"time_elapsed":1103512,"internal_node_id":"0.0-1.0-129.0"},{"rt":6791,"responses":"{\"Q0\":\"Blackburnian Warbler\"}","bird":["Lark Sparrow"],"family":["New World Sparrows and Allies"],"class":["899"],"trial_type":"image-multi-choice","trial_index":131,"time_elapsed":1111317,"internal_node_id":"0.0-1.0-130.0"},{"rt":9420,"responses":"{\"Q0\":\"Vesper Sparrow\"}","bird":["Magnolia Warbler"],"family":["Wood-Warblers"],"class":["758"],"trial_type":"image-multi-choice","trial_index":132,"time_elapsed":1121748,"internal_node_id":"0.0-1.0-131.0"},{"rt":4952,"responses":"{\"Q0\":\"Northern Waterthrush\"}","bird":["White-throated Sparrow"],"family":["New World Sparrows and Allies"],"class":["764"],"trial_type":"image-multi-choice","trial_index":133,"time_elapsed":1127710,"internal_node_id":"0.0-1.0-132.0"},{"rt":6538,"responses":"{\"Q0\":\"Black-and-white Warbler\"}","bird":["Magnolia Warbler"],"family":["Wood-Warblers"],"class":["758"],"trial_type":"image-multi-choice","trial_index":134,"time_elapsed":1135257,"internal_node_id":"0.0-1.0-133.0"},{"rt":5633,"responses":"{\"Q0\":\"Magnolia Warbler\"}","bird":["Yellow Warbler"],"family":["Wood-Warblers"],"class":["875"],"trial_type":"image-multi-choice","trial_index":135,"time_elapsed":1141899,"internal_node_id":"0.0-1.0-134.0"},{"rt":5830,"responses":"{\"Q0\":\"Blackburnian Warbler\"}","bird":["Tennessee Warbler"],"family":["Wood-Warblers"],"class":["866"],"trial_type":"image-multi-choice","trial_index":136,"time_elapsed":1148737,"internal_node_id":"0.0-1.0-135.0"},{"rt":6499,"responses":"{\"Q0\":\"Swamp Sparrow\"}","bird":["Ovenbird"],"family":["Wood-Warblers"],"class":["860"],"trial_type":"image-multi-choice","trial_index":137,"time_elapsed":1156245,"internal_node_id":"0.0-1.0-136.0"},{"rt":5684,"responses":"{\"Q0\":\"Blackburnian Warbler\"}","bird":["Black-and-white Warbler"],"family":["Wood-Warblers"],"class":["864"],"trial_type":"image-multi-choice","trial_index":138,"time_elapsed":1162939,"internal_node_id":"0.0-1.0-137.0"},{"rt":5642,"responses":"{\"Q0\":\"Orange-crowned Warbler\"}","bird":["Chipping Sparrow"],"family":["New World Sparrows and Allies"],"class":["769"],"trial_type":"image-multi-choice","trial_index":139,"time_elapsed":1169590,"internal_node_id":"0.0-1.0-138.0"},{"rt":15017,"responses":"{\"Q0\":\"Townsend's Warbler\"}","bird":["Northern Waterthrush"],"family":["Wood-Warblers"],"class":["862"],"trial_type":"image-multi-choice","trial_index":140,"time_elapsed":1185616,"internal_node_id":"0.0-1.0-139.0"},{"rt":7846,"responses":"{\"Q0\":\"Lark Sparrow\"}","bird":["Vesper Sparrow"],"family":["New World Sparrows and Allies"],"class":["898"],"trial_type":"image-multi-choice","trial_index":141,"time_elapsed":1194470,"internal_node_id":"0.0-1.0-140.0"},{"rt":7170,"responses":"{\"Q0\":\"White-crowned Sparrow\"}","bird":["White-throated Sparrow"],"family":["New World Sparrows and Allies"],"class":["764"],"trial_type":"image-multi-choice","trial_index":142,"time_elapsed":1202652,"internal_node_id":"0.0-1.0-141.0"},{"rt":6200,"responses":"{\"Q0\":\"Song Sparrow\"}","bird":["Magnolia Warbler"],"family":["Wood-Warblers"],"class":["758"],"trial_type":"image-multi-choice","trial_index":143,"time_elapsed":1209861,"internal_node_id":"0.0-1.0-142.0"},{"rt":4394,"responses":"{\"Q0\":\"Black-and-white Warbler\"}","bird":["Blackburnian Warbler"],"family":["Wood-Warblers"],"class":["874"],"trial_type":"image-multi-choice","trial_index":144,"time_elapsed":1215265,"internal_node_id":"0.0-1.0-143.0"},{"rt":33918,"responses":"{\"Q0\":\"Northern Waterthrush\"}","bird":["Lark Sparrow"],"family":["New World Sparrows and Allies"],"class":["899"],"trial_type":"image-multi-choice","trial_index":145,"time_elapsed":1250192,"internal_node_id":"0.0-1.0-144.0"},{"rt":5585,"responses":"{\"Q0\":\"Swamp Sparrow\"}","bird":["Song Sparrow"],"family":["New World Sparrows and Allies"],"class":["902"],"trial_type":"image-multi-choice","trial_index":146,"time_elapsed":1256787,"internal_node_id":"0.0-1.0-145.0"},{"rt":5764,"responses":"{\"Q0\":\"White-crowned Sparrow\"}","bird":["White-crowned Sparrow"],"family":["New World Sparrows and Allies"],"class":["766"],"trial_type":"image-multi-choice","trial_index":147,"time_elapsed":1263560,"internal_node_id":"0.0-1.0-146.0"},{"rt":6216,"responses":"{\"Q0\":\"American Tree Sparrow\"}","bird":["Chipping Sparrow"],"family":["New World Sparrows and Allies"],"class":["769"],"trial_type":"image-multi-choice","trial_index":148,"time_elapsed":1270785,"internal_node_id":"0.0-1.0-147.0"},{"rt":7195,"responses":"{\"Q0\":\"Lark Sparrow\"}","bird":["Swamp Sparrow"],"family":["New World Sparrows and Allies"],"class":["904"],"trial_type":"image-multi-choice","trial_index":149,"time_elapsed":1278989,"internal_node_id":"0.0-1.0-148.0"},{"rt":12643,"responses":"{\"Q0\":\"Vesper Sparrow\"}","bird":["Fox Sparrow"],"family":["New World Sparrows and Allies"],"class":["901"],"trial_type":"image-multi-choice","trial_index":150,"time_elapsed":1292641,"internal_node_id":"0.0-1.0-149.0"},{"rt":6447,"responses":"{\"Q0\":\"Nashville Warbler\"}","bird":["Yellow Warbler"],"family":["Wood-Warblers"],"class":["875"],"trial_type":"image-multi-choice","trial_index":151,"time_elapsed":1300097,"internal_node_id":"0.0-1.0-150.0"},{"rt":9739,"responses":"{\"Q0\":\"Lincoln's Sparrow\"}","bird":["White-crowned Sparrow"],"family":["New World Sparrows and Allies"],"class":["766"],"trial_type":"image-multi-choice","trial_index":152,"time_elapsed":1310845,"internal_node_id":"0.0-1.0-151.0"},{"rt":10125,"responses":"{\"Q0\":\"Chipping Sparrow\"}","bird":["Song Sparrow"],"family":["New World Sparrows and Allies"],"class":["902"],"trial_type":"image-multi-choice","trial_index":153,"time_elapsed":1321979,"internal_node_id":"0.0-1.0-152.0"},{"rt":10851,"responses":"{\"Q0\":\"Lark Sparrow\"}","bird":["Northern Waterthrush"],"family":["Wood-Warblers"],"class":["862"],"trial_type":"image-multi-choice","trial_index":154,"time_elapsed":1333838,"internal_node_id":"0.0-1.0-153.0"},{"rt":16796,"responses":"{\"Q0\":\"White-crowned Sparrow\"}","bird":["White-crowned Sparrow"],"family":["New World Sparrows and Allies"],"class":["766"],"trial_type":"image-multi-choice","trial_index":155,"time_elapsed":1351643,"internal_node_id":"0.0-1.0-154.0"},{"rt":7036,"responses":"{\"Q0\":\"Townsend's Warbler\"}","bird":["Yellow Warbler"],"family":["Wood-Warblers"],"class":["875"],"trial_type":"image-multi-choice","trial_index":156,"time_elapsed":1359701,"internal_node_id":"0.0-1.0-155.0"},{"rt":4298,"responses":"{\"Q0\":\"White-throated Sparrow\"}","bird":["White-throated Sparrow"],"family":["New World Sparrows and Allies"],"class":["764"],"trial_type":"image-multi-choice","trial_index":157,"time_elapsed":1365007,"internal_node_id":"0.0-1.0-156.0"},{"rt":7483,"responses":"{\"Q0\":\"Vesper Sparrow\"}","bird":["White-crowned Sparrow"],"family":["New World Sparrows and Allies"],"class":["766"],"trial_type":"image-multi-choice","trial_index":158,"time_elapsed":1373499,"internal_node_id":"0.0-1.0-157.0"},{"rt":6481,"responses":"{\"Q0\":\"Lark Sparrow\"}","bird":["Townsend's Warbler"],"family":["Wood-Warblers"],"class":["881"],"trial_type":"image-multi-choice","trial_index":159,"time_elapsed":1380988,"internal_node_id":"0.0-1.0-158.0"},{"rt":5097,"responses":"{\"Q0\":\"Ovenbird\"}","bird":["Tennessee Warbler"],"family":["Wood-Warblers"],"class":["866"],"trial_type":"image-multi-choice","trial_index":160,"time_elapsed":1387097,"internal_node_id":"0.0-1.0-159.0"},{"rt":4724,"responses":"{\"Q0\":\"White-throated Sparrow\"}","bird":["White-throated Sparrow"],"family":["New World Sparrows and Allies"],"class":["764"],"trial_type":"image-multi-choice","trial_index":161,"time_elapsed":1392831,"internal_node_id":"0.0-1.0-160.0"},{"rt":6925,"responses":"{\"Q0\":\"Fox Sparrow\"}","bird":["Fox Sparrow"],"family":["New World Sparrows and Allies"],"class":["901"],"trial_type":"image-multi-choice","trial_index":162,"time_elapsed":1400765,"internal_node_id":"0.0-1.0-161.0"},{"rt":5297,"responses":"{\"Q0\":\"Northern Waterthrush\"}","bird":["Song Sparrow"],"family":["New World Sparrows and Allies"],"class":["902"],"trial_type":"image-multi-choice","trial_index":163,"time_elapsed":1407072,"internal_node_id":"0.0-1.0-162.0"},{"rt":8206,"responses":"{\"Q0\":\"Vesper Sparrow\"}","bird":["White-crowned Sparrow"],"family":["New World Sparrows and Allies"],"class":["766"],"trial_type":"image-multi-choice","trial_index":164,"time_elapsed":1416288,"internal_node_id":"0.0-1.0-163.0"},{"rt":6005,"responses":"{\"Q0\":\"Chipping Sparrow\"}","bird":["Song Sparrow"],"family":["New World Sparrows and Allies"],"class":["902"],"trial_type":"image-multi-choice","trial_index":165,"time_elapsed":1423307,"internal_node_id":"0.0-1.0-164.0"},{"rt":18889,"responses":"{\"Q0\":\"Lincoln's Sparrow\"}","bird":["American Tree Sparrow"],"family":["New World Sparrows and Allies"],"class":["894"],"trial_type":"image-multi-choice","trial_index":166,"time_elapsed":1443204,"internal_node_id":"0.0-1.0-165.0"},{"rt":5332,"responses":"{\"Q0\":\"Yellow Warbler\"}","bird":["Orange-crowned Warbler"],"family":["Wood-Warblers"],"class":["867"],"trial_type":"image-multi-choice","trial_index":167,"time_elapsed":1449545,"internal_node_id":"0.0-1.0-166.0"},{"rt":7936,"responses":"{\"Q0\":\"Lincoln's Sparrow\"}","bird":["Lincoln's Sparrow"],"family":["New World Sparrows and Allies"],"class":["903"],"trial_type":"image-multi-choice","trial_index":168,"time_elapsed":1458490,"internal_node_id":"0.0-1.0-167.0"},{"rt":6316,"responses":"{\"Q0\":\"Black-and-white Warbler\"}","bird":["Blackburnian Warbler"],"family":["Wood-Warblers"],"class":["874"],"trial_type":"image-multi-choice","trial_index":169,"time_elapsed":1465815,"internal_node_id":"0.0-1.0-168.0"},{"rt":6965,"responses":"{\"Q0\":\"American Tree Sparrow\"}","bird":["White-throated Sparrow"],"family":["New World Sparrows and Allies"],"class":["764"],"trial_type":"image-multi-choice","trial_index":170,"time_elapsed":1473788,"internal_node_id":"0.0-1.0-169.0"},{"rt":5679,"responses":"{\"Q0\":\"Ovenbird\"}","bird":["Fox Sparrow"],"family":["New World Sparrows and Allies"],"class":["901"],"trial_type":"image-multi-choice","trial_index":171,"time_elapsed":1480476,"internal_node_id":"0.0-1.0-170.0"},{"rt":4284,"responses":"{\"Q0\":\"Song Sparrow\"}","bird":["Chipping Sparrow"],"family":["New World Sparrows and Allies"],"class":["769"],"trial_type":"image-multi-choice","trial_index":172,"time_elapsed":1485768,"internal_node_id":"0.0-1.0-171.0"},{"rt":6367,"responses":"{\"Q0\":\"Lark Sparrow\"}","bird":["Swamp Sparrow"],"family":["New World Sparrows and Allies"],"class":["904"],"trial_type":"image-multi-choice","trial_index":173,"time_elapsed":1493144,"internal_node_id":"0.0-1.0-172.0"},{"rt":8563,"responses":"{\"Q0\":\"Lark Sparrow\"}","bird":["Lincoln's Sparrow"],"family":["New World Sparrows and Allies"],"class":["903"],"trial_type":"image-multi-choice","trial_index":174,"time_elapsed":1502716,"internal_node_id":"0.0-1.0-173.0"},{"rt":4648,"responses":"{\"Q0\":\"Lincoln's Sparrow\"}","bird":["Swamp Sparrow"],"family":["New World Sparrows and Allies"],"class":["904"],"trial_type":"image-multi-choice","trial_index":175,"time_elapsed":1508376,"internal_node_id":"0.0-1.0-174.0"},{"rt":7763,"responses":"{\"Q0\":\"Townsend's Warbler\"}","bird":["Townsend's Warbler"],"family":["Wood-Warblers"],"class":["881"],"trial_type":"image-multi-choice","trial_index":176,"time_elapsed":1517147,"internal_node_id":"0.0-1.0-175.0"},{"rt":6674,"responses":"{\"Q0\":\"Orange-crowned Warbler\"}","bird":["American Tree Sparrow"],"family":["New World Sparrows and Allies"],"class":["894"],"trial_type":"image-multi-choice","trial_index":177,"time_elapsed":1524829,"internal_node_id":"0.0-1.0-176.0"},{"rt":7435,"responses":"{\"Q0\":\"Northern Waterthrush\"}","bird":["Fox Sparrow"],"family":["New World Sparrows and Allies"],"class":["901"],"trial_type":"image-multi-choice","trial_index":178,"time_elapsed":1533274,"internal_node_id":"0.0-1.0-177.0"},{"rt":7744,"responses":"{\"Q0\":\"Nashville Warbler\"}","bird":["Lincoln's Sparrow"],"family":["New World Sparrows and Allies"],"class":["903"],"trial_type":"image-multi-choice","trial_index":179,"time_elapsed":1542026,"internal_node_id":"0.0-1.0-178.0"},{"rt":4725,"responses":"{\"Q0\":\"Blackburnian Warbler\"}","bird":["Magnolia Warbler"],"family":["Wood-Warblers"],"class":["758"],"trial_type":"image-multi-choice","trial_index":180,"time_elapsed":1553719,"internal_node_id":"0.0-1.0-179.0"},{"rt":8209,"responses":"{\"Q0\":\"Magnolia Warbler\"}","bird":["Orange-crowned Warbler"],"family":["Wood-Warblers"],"class":["867"],"trial_type":"image-multi-choice","trial_index":181,"time_elapsed":1562938,"internal_node_id":"0.0-1.0-180.0"},{"rt":4788,"responses":"{\"Q0\":\"Yellow Warbler\"}","bird":["Tennessee Warbler"],"family":["Wood-Warblers"],"class":["866"],"trial_type":"image-multi-choice","trial_index":182,"time_elapsed":1568737,"internal_node_id":"0.0-1.0-181.0"},{"rt":8291,"responses":"{\"Q0\":\"Lincoln's Sparrow\"}","bird":["Vesper Sparrow"],"family":["New World Sparrows and Allies"],"class":["898"],"trial_type":"image-multi-choice","trial_index":183,"time_elapsed":1578037,"internal_node_id":"0.0-1.0-182.0"},{"rt":4997,"responses":"{\"Q0\":\"Blackburnian Warbler\"}","bird":["Blackburnian Warbler"],"family":["Wood-Warblers"],"class":["874"],"trial_type":"image-multi-choice","trial_index":184,"time_elapsed":1584045,"internal_node_id":"0.0-1.0-183.0"},{"rt":6572,"responses":"{\"Q0\":\"Swamp Sparrow\"}","bird":["Lincoln's Sparrow"],"family":["New World Sparrows and Allies"],"class":["903"],"trial_type":"image-multi-choice","trial_index":185,"time_elapsed":1591625,"internal_node_id":"0.0-1.0-184.0"},{"rt":12426,"responses":"{\"Q0\":\"Vesper Sparrow\"}","bird":["Townsend's Warbler"],"family":["Wood-Warblers"],"class":["881"],"trial_type":"image-multi-choice","trial_index":186,"time_elapsed":1605060,"internal_node_id":"0.0-1.0-185.0"},{"rt":9799,"responses":"{\"Q0\":\"Lark Sparrow\"}","bird":["Ovenbird"],"family":["Wood-Warblers"],"class":["860"],"trial_type":"image-multi-choice","trial_index":187,"time_elapsed":1615868,"internal_node_id":"0.0-1.0-186.0"},{"rt":7088,"responses":"{\"Q0\":\"Tennessee Warbler\"}","bird":["Orange-crowned Warbler"],"family":["Wood-Warblers"],"class":["867"],"trial_type":"image-multi-choice","trial_index":188,"time_elapsed":1623965,"internal_node_id":"0.0-1.0-187.0"},{"rt":15243,"responses":"{\"Q0\":\"Lark Sparrow\"}","bird":["Chipping Sparrow"],"family":["New World Sparrows and Allies"],"class":["769"],"trial_type":"image-multi-choice","trial_index":189,"time_elapsed":1640217,"internal_node_id":"0.0-1.0-188.0"},{"rt":9794,"responses":"{\"Q0\":\"Vesper Sparrow\"}","bird":["American Tree Sparrow"],"family":["New World Sparrows and Allies"],"class":["894"],"trial_type":"image-multi-choice","trial_index":190,"time_elapsed":1651021,"internal_node_id":"0.0-1.0-189.0"},{"rt":6006,"responses":"{\"Q0\":\"Swamp Sparrow\"}","bird":["Vesper Sparrow"],"family":["New World Sparrows and Allies"],"class":["898"],"trial_type":"image-multi-choice","trial_index":191,"time_elapsed":1658041,"internal_node_id":"0.0-1.0-190.0"},{"rt":5732,"responses":"{\"Q0\":\"Orange-crowned Warbler\"}","bird":["Lincoln's Sparrow"],"family":["New World Sparrows and Allies"],"class":["903"],"trial_type":"image-multi-choice","trial_index":192,"time_elapsed":1664781,"internal_node_id":"0.0-1.0-191.0"},{"rt":25859,"responses":"{\"Q0\":\"Blackburnian Warbler\"}","bird":["Tennessee Warbler"],"family":["Wood-Warblers"],"class":["866"],"trial_type":"image-multi-choice","trial_index":193,"time_elapsed":1691649,"internal_node_id":"0.0-1.0-192.0"},{"rt":10478,"responses":"{\"Q0\":\"Chipping Sparrow\"}","bird":["American Tree Sparrow"],"family":["New World Sparrows and Allies"],"class":["894"],"trial_type":"image-multi-choice","trial_index":194,"time_elapsed":1703135,"internal_node_id":"0.0-1.0-193.0"},{"rt":7606,"responses":"{\"Q0\":\"Song Sparrow\"}","bird":["Lark Sparrow"],"family":["New World Sparrows and Allies"],"class":["899"],"trial_type":"image-multi-choice","trial_index":195,"time_elapsed":1711751,"internal_node_id":"0.0-1.0-194.0"},{"rt":5460,"responses":"{\"Q0\":\"American Tree Sparrow\"}","bird":["Tennessee Warbler"],"family":["Wood-Warblers"],"class":["866"],"trial_type":"image-multi-choice","trial_index":196,"time_elapsed":1718221,"internal_node_id":"0.0-1.0-195.0"},{"rt":5868,"responses":"{\"Q0\":\"Northern Waterthrush\"}","bird":["Northern Waterthrush"],"family":["Wood-Warblers"],"class":["862"],"trial_type":"image-multi-choice","trial_index":197,"time_elapsed":1725099,"internal_node_id":"0.0-1.0-196.0"},{"rt":5354,"responses":"{\"Q0\":\"Swamp Sparrow\"}","bird":["White-throated Sparrow"],"family":["New World Sparrows and Allies"],"class":["764"],"trial_type":"image-multi-choice","trial_index":198,"time_elapsed":1731464,"internal_node_id":"0.0-1.0-197.0"},{"rt":3834,"responses":"{\"Q0\":\"Yellow Warbler\"}","bird":["Yellow Warbler"],"family":["Wood-Warblers"],"class":["875"],"trial_type":"image-multi-choice","trial_index":199,"time_elapsed":1736307,"internal_node_id":"0.0-1.0-198.0"},{"rt":4164,"responses":"{\"Q0\":\"White-crowned Sparrow\"}","bird":["White-crowned Sparrow"],"family":["New World Sparrows and Allies"],"class":["766"],"trial_type":"image-multi-choice","trial_index":200,"time_elapsed":1741481,"internal_node_id":"0.0-1.0-199.0"},{"rt":6686,"responses":"{\"Q0\":\"Lark Sparrow\"}","bird":["American Tree Sparrow"],"family":["New World Sparrows and Allies"],"class":["894"],"trial_type":"image-multi-choice","trial_index":201,"time_elapsed":1749176,"internal_node_id":"0.0-1.0-200.0"},{"rt":9612,"responses":"{\"Q0\":\"Fox Sparrow\"}","bird":["Ovenbird"],"family":["Wood-Warblers"],"class":["860"],"trial_type":"image-multi-choice","trial_index":202,"time_elapsed":1759797,"internal_node_id":"0.0-1.0-201.0"},{"rt":5352,"responses":"{\"Q0\":\"Black-and-white Warbler\"}","bird":["Magnolia Warbler"],"family":["Wood-Warblers"],"class":["758"],"trial_type":"image-multi-choice","trial_index":203,"time_elapsed":1766158,"internal_node_id":"0.0-1.0-202.0"},{"rt":4940,"responses":"{\"Q0\":\"Black-and-white Warbler\"}","bird":["Black-and-white Warbler"],"family":["Wood-Warblers"],"class":["864"],"trial_type":"image-multi-choice","trial_index":204,"time_elapsed":1772107,"internal_node_id":"0.0-1.0-203.0"},{"rt":5083,"responses":"{\"Q0\":\"Northern Waterthrush\"}","bird":["Northern Waterthrush"],"family":["Wood-Warblers"],"class":["862"],"trial_type":"image-multi-choice","trial_index":205,"time_elapsed":1778199,"internal_node_id":"0.0-1.0-204.0"},{"rt":16885,"responses":"{\"Q0\":\"Vesper Sparrow\"}","bird":["American Tree Sparrow"],"family":["New World Sparrows and Allies"],"class":["894"],"trial_type":"image-multi-choice","trial_index":206,"time_elapsed":1796093,"internal_node_id":"0.0-1.0-205.0"},{"rt":21176,"responses":"{\"Q0\":\"Lincoln's Sparrow\"}","bird":["Magnolia Warbler"],"family":["Wood-Warblers"],"class":["758"],"trial_type":"image-multi-choice","trial_index":207,"time_elapsed":1818278,"internal_node_id":"0.0-1.0-206.0"},{"rt":8947,"responses":"{\"Q0\":\"Lark Sparrow\"}","bird":["Blackburnian Warbler"],"family":["Wood-Warblers"],"class":["874"],"trial_type":"image-multi-choice","trial_index":208,"time_elapsed":1828236,"internal_node_id":"0.0-1.0-207.0"},{"rt":6140,"responses":"{\"Q0\":\"Lincoln's Sparrow\"}","bird":["Swamp Sparrow"],"family":["New World Sparrows and Allies"],"class":["904"],"trial_type":"image-multi-choice","trial_index":209,"time_elapsed":1835385,"internal_node_id":"0.0-1.0-208.0"},{"rt":16404,"responses":"{\"Q0\":\"Chipping Sparrow\"}","bird":["American Tree Sparrow"],"family":["New World Sparrows and Allies"],"class":["894"],"trial_type":"image-multi-choice","trial_index":210,"time_elapsed":1852799,"internal_node_id":"0.0-1.0-209.0"},{"rt":6903,"responses":"{\"Q0\":\"Fox Sparrow\"}","bird":["Ovenbird"],"family":["Wood-Warblers"],"class":["860"],"trial_type":"image-multi-choice","trial_index":211,"time_elapsed":1860710,"internal_node_id":"0.0-1.0-210.0"},{"rt":10073,"responses":"{\"Q0\":\"Vesper Sparrow\"}","bird":["Swamp Sparrow"],"family":["New World Sparrows and Allies"],"class":["904"],"trial_type":"image-multi-choice","trial_index":212,"time_elapsed":1871793,"internal_node_id":"0.0-1.0-211.0"},{"rt":5760,"responses":"{\"Q0\":\"Swamp Sparrow\"}","bird":["Song Sparrow"],"family":["New World Sparrows and Allies"],"class":["902"],"trial_type":"image-multi-choice","trial_index":213,"time_elapsed":1878563,"internal_node_id":"0.0-1.0-212.0"},{"rt":4682,"responses":"{\"Q0\":\"Blackburnian Warbler\"}","bird":["Blackburnian Warbler"],"family":["Wood-Warblers"],"class":["874"],"trial_type":"image-multi-choice","trial_index":214,"time_elapsed":1884254,"internal_node_id":"0.0-1.0-213.0"},{"rt":8656,"responses":"{\"Q0\":\"Nashville Warbler\"}","bird":["Vesper Sparrow"],"family":["New World Sparrows and Allies"],"class":["898"],"trial_type":"image-multi-choice","trial_index":215,"time_elapsed":1893920,"internal_node_id":"0.0-1.0-214.0"},{"rt":6708,"responses":"{\"Q0\":\"Blackburnian Warbler\"}","bird":["Blackburnian Warbler"],"family":["Wood-Warblers"],"class":["874"],"trial_type":"image-multi-choice","trial_index":216,"time_elapsed":1901637,"internal_node_id":"0.0-1.0-215.0"},{"rt":4489,"responses":"{\"Q0\":\"Swamp Sparrow\"}","bird":["Song Sparrow"],"family":["New World Sparrows and Allies"],"class":["902"],"trial_type":"image-multi-choice","trial_index":217,"time_elapsed":1907135,"internal_node_id":"0.0-1.0-216.0"},{"rt":4739,"responses":"{\"Q0\":\"Ovenbird\"}","bird":["Tennessee Warbler"],"family":["Wood-Warblers"],"class":["866"],"trial_type":"image-multi-choice","trial_index":218,"time_elapsed":1912883,"internal_node_id":"0.0-1.0-217.0"},{"rt":4289,"responses":"{\"Q0\":\"Black-and-white Warbler\"}","bird":["Black-and-white Warbler"],"family":["Wood-Warblers"],"class":["864"],"trial_type":"image-multi-choice","trial_index":219,"time_elapsed":1918183,"internal_node_id":"0.0-1.0-218.0"},{"rt":7593,"responses":"{\"Q0\":\"Lark Sparrow\"}","bird":["Ovenbird"],"family":["Wood-Warblers"],"class":["860"],"trial_type":"image-multi-choice","trial_index":220,"time_elapsed":1926785,"internal_node_id":"0.0-1.0-219.0"},{"rt":4172,"responses":"{\"Q0\":\"White-throated Sparrow\"}","bird":["White-throated Sparrow"],"family":["New World Sparrows and Allies"],"class":["764"],"trial_type":"image-multi-choice","trial_index":221,"time_elapsed":1931965,"internal_node_id":"0.0-1.0-220.0"},{"rt":6289,"responses":"{\"Q0\":\"Swamp Sparrow\"}","bird":["Vesper Sparrow"],"family":["New World Sparrows and Allies"],"class":["898"],"trial_type":"image-multi-choice","trial_index":222,"time_elapsed":1939262,"internal_node_id":"0.0-1.0-221.0"},{"rt":5092,"responses":"{\"Q0\":\"American Tree Sparrow\"}","bird":["American Tree Sparrow"],"family":["New World Sparrows and Allies"],"class":["894"],"trial_type":"image-multi-choice","trial_index":223,"time_elapsed":1945363,"internal_node_id":"0.0-1.0-222.0"},{"rt":3344,"responses":"{\"Q0\":\"Yellow Warbler\"}","bird":["Yellow Warbler"],"family":["Wood-Warblers"],"class":["875"],"trial_type":"image-multi-choice","trial_index":224,"time_elapsed":1949715,"internal_node_id":"0.0-1.0-223.0"},{"rt":4992,"responses":"{\"Q0\":\"Vesper Sparrow\"}","bird":["Northern Waterthrush"],"family":["Wood-Warblers"],"class":["862"],"trial_type":"image-multi-choice","trial_index":225,"time_elapsed":1955717,"internal_node_id":"0.0-1.0-224.0"},{"rt":4703,"responses":"{\"Q0\":\"Blackburnian Warbler\"}","bird":["Blackburnian Warbler"],"family":["Wood-Warblers"],"class":["874"],"trial_type":"image-multi-choice","trial_index":226,"time_elapsed":1961429,"internal_node_id":"0.0-1.0-225.0"},{"rt":2951,"responses":"{\"Q0\":\"White-throated Sparrow\"}","bird":["White-throated Sparrow"],"family":["New World Sparrows and Allies"],"class":["764"],"trial_type":"image-multi-choice","trial_index":227,"time_elapsed":1965390,"internal_node_id":"0.0-1.0-226.0"},{"rt":5327,"responses":"{\"Q0\":\"Lark Sparrow\"}","bird":["Song Sparrow"],"family":["New World Sparrows and Allies"],"class":["902"],"trial_type":"image-multi-choice","trial_index":228,"time_elapsed":1971727,"internal_node_id":"0.0-1.0-227.0"},{"rt":6000,"responses":"{\"Q0\":\"Chipping Sparrow\"}","bird":["Ovenbird"],"family":["Wood-Warblers"],"class":["860"],"trial_type":"image-multi-choice","trial_index":229,"time_elapsed":1978737,"internal_node_id":"0.0-1.0-228.0"},{"rt":9949,"responses":"{\"Q0\":\"Blackburnian Warbler\"}","bird":["Townsend's Warbler"],"family":["Wood-Warblers"],"class":["881"],"trial_type":"image-multi-choice","trial_index":230,"time_elapsed":1989698,"internal_node_id":"0.0-1.0-229.0"},{"rt":5326,"responses":"{\"Q0\":\"Nashville Warbler\"}","bird":["Nashville Warbler"],"family":["Wood-Warblers"],"class":["868"],"trial_type":"image-multi-choice","trial_index":231,"time_elapsed":1996033,"internal_node_id":"0.0-1.0-230.0"},{"rt":4115,"responses":"{\"Q0\":\"Swamp Sparrow\"}","bird":["Fox Sparrow"],"family":["New World Sparrows and Allies"],"class":["901"],"trial_type":"image-multi-choice","trial_index":232,"time_elapsed":2001157,"internal_node_id":"0.0-1.0-231.0"},{"rt":9649,"responses":"{\"Q0\":\"Lincoln's Sparrow\"}","bird":["Ovenbird"],"family":["Wood-Warblers"],"class":["860"],"trial_type":"image-multi-choice","trial_index":233,"time_elapsed":2011816,"internal_node_id":"0.0-1.0-232.0"},{"rt":6950,"responses":"{\"Q0\":\"Song Sparrow\"}","bird":["Magnolia Warbler"],"family":["Wood-Warblers"],"class":["758"],"trial_type":"image-multi-choice","trial_index":234,"time_elapsed":2019776,"internal_node_id":"0.0-1.0-233.0"},{"rt":5378,"responses":"{\"Q0\":\"American Tree Sparrow\"}","bird":["American Tree Sparrow"],"family":["New World Sparrows and Allies"],"class":["894"],"trial_type":"image-multi-choice","trial_index":235,"time_elapsed":2026163,"internal_node_id":"0.0-1.0-234.0"},{"rt":6001,"responses":"{\"Q0\":\"Black-and-white Warbler\"}","bird":["Blackburnian Warbler"],"family":["Wood-Warblers"],"class":["874"],"trial_type":"image-multi-choice","trial_index":236,"time_elapsed":2033173,"internal_node_id":"0.0-1.0-235.0"},{"rt":8130,"responses":"{\"Q0\":\"Lincoln's Sparrow\"}","bird":["Chipping Sparrow"],"family":["New World Sparrows and Allies"],"class":["769"],"trial_type":"image-multi-choice","trial_index":237,"time_elapsed":2042311,"internal_node_id":"0.0-1.0-236.0"},{"rt":4438,"responses":"{\"Q0\":\"Vesper Sparrow\"}","bird":["Fox Sparrow"],"family":["New World Sparrows and Allies"],"class":["901"],"trial_type":"image-multi-choice","trial_index":238,"time_elapsed":2047758,"internal_node_id":"0.0-1.0-237.0"},{"rt":6128,"responses":"{\"Q0\":\"Northern Waterthrush\"}","bird":["Vesper Sparrow"],"family":["New World Sparrows and Allies"],"class":["898"],"trial_type":"image-multi-choice","trial_index":239,"time_elapsed":2054895,"internal_node_id":"0.0-1.0-238.0"},{"rt":9048,"responses":"{\"Q0\":\"Lark Sparrow\"}","bird":["Northern Waterthrush"],"family":["Wood-Warblers"],"class":["862"],"trial_type":"image-multi-choice","trial_index":240,"time_elapsed":2071280,"internal_node_id":"0.0-1.0-239.0"},{"rt":6402,"responses":"{\"Q0\":\"Nashville Warbler\"}","bird":["Lark Sparrow"],"family":["New World Sparrows and Allies"],"class":["899"],"trial_type":"image-multi-choice","trial_index":241,"time_elapsed":2078692,"internal_node_id":"0.0-1.0-240.0"},{"rt":4550,"responses":"{\"Q0\":\"Townsend's Warbler\"}","bird":["Nashville Warbler"],"family":["Wood-Warblers"],"class":["868"],"trial_type":"image-multi-choice","trial_index":242,"time_elapsed":2084251,"internal_node_id":"0.0-1.0-241.0"},{"rt":7290,"responses":"{\"Q0\":\"Lark Sparrow\"}","bird":["Ovenbird"],"family":["Wood-Warblers"],"class":["860"],"trial_type":"image-multi-choice","trial_index":243,"time_elapsed":2092550,"internal_node_id":"0.0-1.0-242.0"},{"rt":9074,"responses":"{\"Q0\":\"Fox Sparrow\"}","bird":["Northern Waterthrush"],"family":["Wood-Warblers"],"class":["862"],"trial_type":"image-multi-choice","trial_index":244,"time_elapsed":2102633,"internal_node_id":"0.0-1.0-243.0"},{"rt":7489,"responses":"{\"Q0\":\"Nashville Warbler\"}","bird":["Orange-crowned Warbler"],"family":["Wood-Warblers"],"class":["867"],"trial_type":"image-multi-choice","trial_index":245,"time_elapsed":2111131,"internal_node_id":"0.0-1.0-244.0"},{"rt":10626,"responses":"{\"Q0\":\"Vesper Sparrow\"}","bird":["Chipping Sparrow"],"family":["New World Sparrows and Allies"],"class":["769"],"trial_type":"image-multi-choice","trial_index":246,"time_elapsed":2122766,"internal_node_id":"0.0-1.0-245.0"},{"rt":10305,"responses":"{\"Q0\":\"Tennessee Warbler\"}","bird":["Tennessee Warbler"],"family":["Wood-Warblers"],"class":["866"],"trial_type":"image-multi-choice","trial_index":247,"time_elapsed":2134080,"internal_node_id":"0.0-1.0-246.0"},{"rt":5347,"responses":"{\"Q0\":\"Townsend's Warbler\"}","bird":["Yellow Warbler"],"family":["Wood-Warblers"],"class":["875"],"trial_type":"image-multi-choice","trial_index":248,"time_elapsed":2140437,"internal_node_id":"0.0-1.0-247.0"},{"rt":8070,"responses":"{\"Q0\":\"Lincoln's Sparrow\"}","bird":["Lincoln's Sparrow"],"family":["New World Sparrows and Allies"],"class":["903"],"trial_type":"image-multi-choice","trial_index":249,"time_elapsed":2149516,"internal_node_id":"0.0-1.0-248.0"},{"rt":6495,"responses":"{\"Q0\":\"Nashville Warbler\"}","bird":["Vesper Sparrow"],"family":["New World Sparrows and Allies"],"class":["898"],"trial_type":"image-multi-choice","trial_index":250,"time_elapsed":2157021,"internal_node_id":"0.0-1.0-249.0"},{"rt":4117,"responses":"{\"Q0\":\"Black-and-white Warbler\"}","bird":["Black-and-white Warbler"],"family":["Wood-Warblers"],"class":["864"],"trial_type":"image-multi-choice","trial_index":251,"time_elapsed":2162147,"internal_node_id":"0.0-1.0-250.0"},{"rt":8669,"responses":"{\"Q0\":\"Swamp Sparrow\"}","bird":["Song Sparrow"],"family":["New World Sparrows and Allies"],"class":["902"],"trial_type":"image-multi-choice","trial_index":252,"time_elapsed":2171825,"internal_node_id":"0.0-1.0-251.0"},{"rt":5698,"responses":"{\"Q0\":\"Song Sparrow\"}","bird":["Chipping Sparrow"],"family":["New World Sparrows and Allies"],"class":["769"],"trial_type":"image-multi-choice","trial_index":253,"time_elapsed":2178532,"internal_node_id":"0.0-1.0-252.0"},{"rt":4414,"responses":"{\"Q0\":\"Blackburnian Warbler\"}","bird":["Magnolia Warbler"],"family":["Wood-Warblers"],"class":["758"],"trial_type":"image-multi-choice","trial_index":254,"time_elapsed":2183954,"internal_node_id":"0.0-1.0-253.0"},{"rt":6860,"responses":"{\"Q0\":\"Nashville Warbler\"}","bird":["Lincoln's Sparrow"],"family":["New World Sparrows and Allies"],"class":["903"],"trial_type":"image-multi-choice","trial_index":255,"time_elapsed":2191828,"internal_node_id":"0.0-1.0-254.0"},{"rt":4517,"responses":"{\"Q0\":\"White-throated Sparrow\"}","bird":["White-throated Sparrow"],"family":["New World Sparrows and Allies"],"class":["764"],"trial_type":"image-multi-choice","trial_index":256,"time_elapsed":2197353,"internal_node_id":"0.0-1.0-255.0"},{"rt":13730,"responses":"{\"Q0\":\"Chipping Sparrow\"}","bird":["Fox Sparrow"],"family":["New World Sparrows and Allies"],"class":["901"],"trial_type":"image-multi-choice","trial_index":257,"time_elapsed":2212092,"internal_node_id":"0.0-1.0-256.0"},{"rt":6968,"responses":"{\"Q0\":\"White-crowned Sparrow\"}","bird":["Black-and-white Warbler"],"family":["Wood-Warblers"],"class":["864"],"trial_type":"image-multi-choice","trial_index":258,"time_elapsed":2220070,"internal_node_id":"0.0-1.0-257.0"},{"rt":11453,"responses":"{\"Q0\":\"Lark Sparrow\"}","bird":["Chipping Sparrow"],"family":["New World Sparrows and Allies"],"class":["769"],"trial_type":"image-multi-choice","trial_index":259,"time_elapsed":2232532,"internal_node_id":"0.0-1.0-258.0"},{"rt":5673,"responses":"{\"Q0\":\"Magnolia Warbler\"}","bird":["Orange-crowned Warbler"],"family":["Wood-Warblers"],"class":["867"],"trial_type":"image-multi-choice","trial_index":260,"time_elapsed":2239213,"internal_node_id":"0.0-1.0-259.0"},{"rt":7628,"responses":"{\"Q0\":\"Northern Waterthrush\"}","bird":["Lark Sparrow"],"family":["New World Sparrows and Allies"],"class":["899"],"trial_type":"image-multi-choice","trial_index":261,"time_elapsed":2247849,"internal_node_id":"0.0-1.0-260.0"},{"rt":8403,"responses":"{\"Q0\":\"Vesper Sparrow\"}","bird":["Lincoln's Sparrow"],"family":["New World Sparrows and Allies"],"class":["903"],"trial_type":"image-multi-choice","trial_index":262,"time_elapsed":2257260,"internal_node_id":"0.0-1.0-261.0"},{"rt":4795,"responses":"{\"Q0\":\"Swamp Sparrow\"}","bird":["Northern Waterthrush"],"family":["Wood-Warblers"],"class":["862"],"trial_type":"image-multi-choice","trial_index":263,"time_elapsed":2263066,"internal_node_id":"0.0-1.0-262.0"},{"rt":9438,"responses":"{\"Q0\":\"Nashville Warbler\"}","bird":["Nashville Warbler"],"family":["Wood-Warblers"],"class":["868"],"trial_type":"image-multi-choice","trial_index":264,"time_elapsed":2273513,"internal_node_id":"0.0-1.0-263.0"},{"rt":6907,"responses":"{\"Q0\":\"Nashville Warbler\"}","bird":["Lark Sparrow"],"family":["New World Sparrows and Allies"],"class":["899"],"trial_type":"image-multi-choice","trial_index":265,"time_elapsed":2281428,"internal_node_id":"0.0-1.0-264.0"},{"rt":8671,"responses":"{\"Q0\":\"Chipping Sparrow\"}","bird":["Orange-crowned Warbler"],"family":["Wood-Warblers"],"class":["867"],"trial_type":"image-multi-choice","trial_index":266,"time_elapsed":2291109,"internal_node_id":"0.0-1.0-265.0"},{"rt":8625,"responses":"{\"Q0\":\"Lark Sparrow\"}","bird":["Magnolia Warbler"],"family":["Wood-Warblers"],"class":["758"],"trial_type":"image-multi-choice","trial_index":267,"time_elapsed":2300743,"internal_node_id":"0.0-1.0-266.0"},{"rt":8402,"responses":"{\"Q0\":\"Magnolia Warbler\"}","bird":["Orange-crowned Warbler"],"family":["Wood-Warblers"],"class":["867"],"trial_type":"image-multi-choice","trial_index":268,"time_elapsed":2310153,"internal_node_id":"0.0-1.0-267.0"},{"rt":6408,"responses":"{\"Q0\":\"Tennessee Warbler\"}","bird":["Yellow Warbler"],"family":["Wood-Warblers"],"class":["875"],"trial_type":"image-multi-choice","trial_index":269,"time_elapsed":2317572,"internal_node_id":"0.0-1.0-268.0"},{"rt":5044,"responses":"{\"Q0\":\"Townsend's Warbler\"}","bird":["Orange-crowned Warbler"],"family":["Wood-Warblers"],"class":["867"],"trial_type":"image-multi-choice","trial_index":270,"time_elapsed":2323624,"internal_node_id":"0.0-1.0-269.0"},{"rt":7788,"responses":"{\"Q0\":\"Lincoln's Sparrow\"}","bird":["Lincoln's Sparrow"],"family":["New World Sparrows and Allies"],"class":["903"],"trial_type":"image-multi-choice","trial_index":271,"time_elapsed":2332420,"internal_node_id":"0.0-1.0-270.0"},{"rt":8299,"responses":"{\"Q0\":\"Vesper Sparrow\"}","bird":["Lark Sparrow"],"family":["New World Sparrows and Allies"],"class":["899"],"trial_type":"image-multi-choice","trial_index":272,"time_elapsed":2341729,"internal_node_id":"0.0-1.0-271.0"},{"rt":9649,"responses":"{\"Q0\":\"Lincoln's Sparrow\"}","bird":["Lincoln's Sparrow"],"family":["New World Sparrows and Allies"],"class":["903"],"trial_type":"image-multi-choice","trial_index":273,"time_elapsed":2352387,"internal_node_id":"0.0-1.0-272.0"},{"rt":5579,"responses":"{\"Q0\":\"Townsend's Warbler\"}","bird":["Nashville Warbler"],"family":["Wood-Warblers"],"class":["868"],"trial_type":"image-multi-choice","trial_index":274,"time_elapsed":2358976,"internal_node_id":"0.0-1.0-273.0"},{"rt":7547,"responses":"{\"Q0\":\"Northern Waterthrush\"}","bird":["Lark Sparrow"],"family":["New World Sparrows and Allies"],"class":["899"],"trial_type":"image-multi-choice","trial_index":275,"time_elapsed":2367531,"internal_node_id":"0.0-1.0-274.0"},{"rt":5573,"responses":"{\"Q0\":\"American Tree Sparrow\"}","bird":["Chipping Sparrow"],"family":["New World Sparrows and Allies"],"class":["769"],"trial_type":"image-multi-choice","trial_index":276,"time_elapsed":2374112,"internal_node_id":"0.0-1.0-275.0"},{"rt":3773,"responses":"{\"Q0\":\"White-throated Sparrow\"}","bird":["White-throated Sparrow"],"family":["New World Sparrows and Allies"],"class":["764"],"trial_type":"image-multi-choice","trial_index":277,"time_elapsed":2378893,"internal_node_id":"0.0-1.0-276.0"},{"rt":7001,"responses":"{\"Q0\":\"Song Sparrow\"}","bird":["Song Sparrow"],"family":["New World Sparrows and Allies"],"class":["902"],"trial_type":"image-multi-choice","trial_index":278,"time_elapsed":2386902,"internal_node_id":"0.0-1.0-277.0"},{"rt":13409,"responses":"{\"Q0\":\"Orange-crowned Warbler\"}","bird":["Ovenbird"],"family":["Wood-Warblers"],"class":["860"],"trial_type":"image-multi-choice","trial_index":279,"time_elapsed":2401321,"internal_node_id":"0.0-1.0-278.0"},{"rt":6248,"responses":"{\"Q0\":\"Vesper Sparrow\"}","bird":["Lark Sparrow"],"family":["New World Sparrows and Allies"],"class":["899"],"trial_type":"image-multi-choice","trial_index":280,"time_elapsed":2408581,"internal_node_id":"0.0-1.0-279.0"},{"rt":10929,"responses":"{\"Q0\":\"Fox Sparrow\"}","bird":["Chipping Sparrow"],"family":["New World Sparrows and Allies"],"class":["769"],"trial_type":"image-multi-choice","trial_index":281,"time_elapsed":2420520,"internal_node_id":"0.0-1.0-280.0"},{"rt":12285,"responses":"{\"Q0\":\"Vesper Sparrow\"}","bird":["Lark Sparrow"],"family":["New World Sparrows and Allies"],"class":["899"],"trial_type":"image-multi-choice","trial_index":282,"time_elapsed":2433815,"internal_node_id":"0.0-1.0-281.0"},{"rt":7198,"responses":"{\"Q0\":\"Lark Sparrow\"}","bird":["Song Sparrow"],"family":["New World Sparrows and Allies"],"class":["902"],"trial_type":"image-multi-choice","trial_index":283,"time_elapsed":2442022,"internal_node_id":"0.0-1.0-282.0"},{"rt":5052,"responses":"{\"Q0\":\"Song Sparrow\"}","bird":["White-throated Sparrow"],"family":["New World Sparrows and Allies"],"class":["764"],"trial_type":"image-multi-choice","trial_index":284,"time_elapsed":2448083,"internal_node_id":"0.0-1.0-283.0"},{"rt":4363,"responses":"{\"Q0\":\"Blackburnian Warbler\"}","bird":["Magnolia Warbler"],"family":["Wood-Warblers"],"class":["758"],"trial_type":"image-multi-choice","trial_index":285,"time_elapsed":2453455,"internal_node_id":"0.0-1.0-284.0"},{"rt":7583,"responses":"{\"Q0\":\"Nashville Warbler\"}","bird":["Orange-crowned Warbler"],"family":["Wood-Warblers"],"class":["867"],"trial_type":"image-multi-choice","trial_index":286,"time_elapsed":2462048,"internal_node_id":"0.0-1.0-285.0"},{"rt":6798,"responses":"{\"Q0\":\"Orange-crowned Warbler\"}","bird":["Lincoln's Sparrow"],"family":["New World Sparrows and Allies"],"class":["903"],"trial_type":"image-multi-choice","trial_index":287,"time_elapsed":2469855,"internal_node_id":"0.0-1.0-286.0"},{"rt":6397,"responses":"{\"Q0\":\"Lark Sparrow\"}","bird":["Lark Sparrow"],"family":["New World Sparrows and Allies"],"class":["899"],"trial_type":"image-multi-choice","trial_index":288,"time_elapsed":2477262,"internal_node_id":"0.0-1.0-287.0"},{"rt":6394,"responses":"{\"Q0\":\"American Tree Sparrow\"}","bird":["Townsend's Warbler"],"family":["Wood-Warblers"],"class":["881"],"trial_type":"image-multi-choice","trial_index":289,"time_elapsed":2484664,"internal_node_id":"0.0-1.0-288.0"},{"rt":5044,"responses":"{\"Q0\":\"Blackburnian Warbler\"}","bird":["Black-and-white Warbler"],"family":["Wood-Warblers"],"class":["864"],"trial_type":"image-multi-choice","trial_index":290,"time_elapsed":2490717,"internal_node_id":"0.0-1.0-289.0"},{"rt":3590,"responses":"{\"Q0\":\"Yellow Warbler\"}","bird":["Tennessee Warbler"],"family":["Wood-Warblers"],"class":["866"],"trial_type":"image-multi-choice","trial_index":291,"time_elapsed":2495318,"internal_node_id":"0.0-1.0-290.0"},{"rt":5528,"responses":"{\"Q0\":\"Vesper Sparrow\"}","bird":["American Tree Sparrow"],"family":["New World Sparrows and Allies"],"class":["894"],"trial_type":"image-multi-choice","trial_index":292,"time_elapsed":2501855,"internal_node_id":"0.0-1.0-291.0"},{"rt":9033,"responses":"{\"Q0\":\"Chipping Sparrow\"}","bird":["Chipping Sparrow"],"family":["New World Sparrows and Allies"],"class":["769"],"trial_type":"image-multi-choice","trial_index":293,"time_elapsed":2511896,"internal_node_id":"0.0-1.0-292.0"},{"rt":4728,"responses":"{\"Q0\":\"Northern Waterthrush\"}","bird":["Lark Sparrow"],"family":["New World Sparrows and Allies"],"class":["899"],"trial_type":"image-multi-choice","trial_index":294,"time_elapsed":2517633,"internal_node_id":"0.0-1.0-293.0"},{"rt":4398,"responses":"{\"Q0\":\"Blackburnian Warbler\"}","bird":["Magnolia Warbler"],"family":["Wood-Warblers"],"class":["758"],"trial_type":"image-multi-choice","trial_index":295,"time_elapsed":2523040,"internal_node_id":"0.0-1.0-294.0"},{"rt":2864,"responses":"{\"Q0\":\"Yellow Warbler\"}","bird":["Yellow Warbler"],"family":["Wood-Warblers"],"class":["875"],"trial_type":"image-multi-choice","trial_index":296,"time_elapsed":2526913,"internal_node_id":"0.0-1.0-295.0"},{"rt":7541,"responses":"{\"Q0\":\"White-crowned Sparrow\"}","bird":["White-crowned Sparrow"],"family":["New World Sparrows and Allies"],"class":["766"],"trial_type":"image-multi-choice","trial_index":297,"time_elapsed":2535462,"internal_node_id":"0.0-1.0-296.0"},{"rt":9386,"responses":"{\"Q0\":\"Lark Sparrow\"}","bird":["Swamp Sparrow"],"family":["New World Sparrows and Allies"],"class":["904"],"trial_type":"image-multi-choice","trial_index":298,"time_elapsed":2545856,"internal_node_id":"0.0-1.0-297.0"},{"rt":5854,"responses":"{\"Q0\":\"Nashville Warbler\"}","bird":["Orange-crowned Warbler"],"family":["Wood-Warblers"],"class":["867"],"trial_type":"image-multi-choice","trial_index":299,"time_elapsed":2552718,"internal_node_id":"0.0-1.0-298.0"},{"rt":8581,"responses":"{\"Q0\":\"Orange-crowned Warbler\"}","bird":["Vesper Sparrow"],"family":["New World Sparrows and Allies"],"class":["898"],"trial_type":"image-multi-choice","trial_index":300,"time_elapsed":2569151,"internal_node_id":"0.0-1.0-299.0"},{"view_history":"[{\"page_index\":0,\"viewing_time\":2218}]","rt":2218,"trial_type":"instructions","trial_index":301,"time_elapsed":2572369,"internal_node_id":"0.0-2.0"}]