"view_history","rt","trial_type","trial_index","time_elapsed","internal_node_id","responses","bird","family","class"
"[{""page_index"":0,""viewing_time"":15554}]","15556","instructions","0","15557","0.0-0.0","","","",""
"","7921","image-multi-choice","1","24518","0.0-1.0-0.0","{""Q0"":""Black-and-white Warbler""}","Townsend's Warbler","Wood-Warblers","881"
"","5430","image-multi-choice","2","30972","0.0-1.0-1.0","{""Q0"":""American Tree Sparrow""}","Lark Sparrow","New World Sparrows and Allies","899"
"","6884","image-multi-choice","3","38883","0.0-1.0-2.0","{""Q0"":""White-crowned Sparrow""}","White-crowned Sparrow","New World Sparrows and Allies","766"
"","8282","image-multi-choice","4","48189","0.0-1.0-3.0","{""Q0"":""Lincoln's Sparrow""}","Lark Sparrow","New World Sparrows and Allies","899"
"","2713","image-multi-choice","5","51923","0.0-1.0-4.0","{""Q0"":""White-crowned Sparrow""}","White-throated Sparrow","New World Sparrows and Allies","764"
"","11438","image-multi-choice","6","64380","0.0-1.0-5.0","{""Q0"":""White-throated Sparrow""}","White-crowned Sparrow","New World Sparrows and Allies","766"
"","7401","image-multi-choice","7","72804","0.0-1.0-6.0","{""Q0"":""Orange-crowned Warbler""}","Tennessee Warbler","Wood-Warblers","866"
"","4462","image-multi-choice","8","78296","0.0-1.0-7.0","{""Q0"":""White-crowned Sparrow""}","White-crowned Sparrow","New World Sparrows and Allies","766"
"","8424","image-multi-choice","9","87752","0.0-1.0-8.0","{""Q0"":""Orange-crowned Warbler""}","Orange-crowned Warbler","Wood-Warblers","867"
"","11424","image-multi-choice","10","100205","0.0-1.0-9.0","{""Q0"":""Fox Sparrow""}","Swamp Sparrow","New World Sparrows and Allies","904"
"","6955","image-multi-choice","11","108183","0.0-1.0-10.0","{""Q0"":""Magnolia Warbler""}","Orange-crowned Warbler","Wood-Warblers","867"
"","3387","image-multi-choice","12","112591","0.0-1.0-11.0","{""Q0"":""White-crowned Sparrow""}","White-crowned Sparrow","New World Sparrows and Allies","766"
"","3848","image-multi-choice","13","117462","0.0-1.0-12.0","{""Q0"":""Chipping Sparrow""}","Townsend's Warbler","Wood-Warblers","881"
"","4116","image-multi-choice","14","122599","0.0-1.0-13.0","{""Q0"":""Lincoln's Sparrow""}","Lincoln's Sparrow","New World Sparrows and Allies","903"
"","3266","image-multi-choice","15","126886","0.0-1.0-14.0","{""Q0"":""Northern Waterthrush""}","Ovenbird","Wood-Warblers","860"
"","5048","image-multi-choice","16","132957","0.0-1.0-15.0","{""Q0"":""Orange-crowned Warbler""}","Tennessee Warbler","Wood-Warblers","866"
"","7412","image-multi-choice","17","141389","0.0-1.0-16.0","{""Q0"":""Lincoln's Sparrow""}","Vesper Sparrow","New World Sparrows and Allies","898"
"","12971","image-multi-choice","18","155394","0.0-1.0-17.0","{""Q0"":""Townsend's Warbler""}","Tennessee Warbler","Wood-Warblers","866"
"","4544","image-multi-choice","19","160962","0.0-1.0-18.0","{""Q0"":""Lincoln's Sparrow""}","Vesper Sparrow","New World Sparrows and Allies","898"
"","4544","image-multi-choice","20","166535","0.0-1.0-19.0","{""Q0"":""Song Sparrow""}","Song Sparrow","New World Sparrows and Allies","902"
"","4470","image-multi-choice","21","172024","0.0-1.0-20.0","{""Q0"":""Black-and-white Warbler""}","Magnolia Warbler","Wood-Warblers","758"
"","2638","image-multi-choice","22","175688","0.0-1.0-21.0","{""Q0"":""Nashville Warbler""}","Orange-crowned Warbler","Wood-Warblers","867"
"","6845","image-multi-choice","23","183560","0.0-1.0-22.0","{""Q0"":""Blackburnian Warbler""}","Townsend's Warbler","Wood-Warblers","881"
"","6445","image-multi-choice","24","191024","0.0-1.0-23.0","{""Q0"":""Northern Waterthrush""}","Ovenbird","Wood-Warblers","860"
"","3499","image-multi-choice","25","195537","0.0-1.0-24.0","{""Q0"":""Lincoln's Sparrow""}","Lincoln's Sparrow","New World Sparrows and Allies","903"
"","2605","image-multi-choice","26","199160","0.0-1.0-25.0","{""Q0"":""White-crowned Sparrow""}","White-throated Sparrow","New World Sparrows and Allies","764"
"","4225","image-multi-choice","27","204400","0.0-1.0-26.0","{""Q0"":""Northern Waterthrush""}","Ovenbird","Wood-Warblers","860"
"","6546","image-multi-choice","28","211965","0.0-1.0-27.0","{""Q0"":""Vesper Sparrow""}","Chipping Sparrow","New World Sparrows and Allies","769"
"","3638","image-multi-choice","29","216634","0.0-1.0-28.0","{""Q0"":""Vesper Sparrow""}","Fox Sparrow","New World Sparrows and Allies","901"
"","6689","image-multi-choice","30","224345","0.0-1.0-29.0","{""Q0"":""Magnolia Warbler""}","Magnolia Warbler","Wood-Warblers","758"
"","6229","image-multi-choice","31","231594","0.0-1.0-30.0","{""Q0"":""Northern Waterthrush""}","Northern Waterthrush","Wood-Warblers","862"
"","8691","image-multi-choice","32","241305","0.0-1.0-31.0","{""Q0"":""Townsend's Warbler""}","Tennessee Warbler","Wood-Warblers","866"
"","7303","image-multi-choice","33","249635","0.0-1.0-32.0","{""Q0"":""Townsend's Warbler""}","Magnolia Warbler","Wood-Warblers","758"
"","4372","image-multi-choice","34","255026","0.0-1.0-33.0","{""Q0"":""Fox Sparrow""}","Song Sparrow","New World Sparrows and Allies","902"
"","5684","image-multi-choice","35","261730","0.0-1.0-34.0","{""Q0"":""Lark Sparrow""}","Lark Sparrow","New World Sparrows and Allies","899"
"","5672","image-multi-choice","36","268425","0.0-1.0-35.0","{""Q0"":""Nashville Warbler""}","Nashville Warbler","Wood-Warblers","868"
"","3658","image-multi-choice","37","273099","0.0-1.0-36.0","{""Q0"":""Northern Waterthrush""}","Northern Waterthrush","Wood-Warblers","862"
"","7518","image-multi-choice","38","281640","0.0-1.0-37.0","{""Q0"":""Chipping Sparrow""}","Chipping Sparrow","New World Sparrows and Allies","769"
"","5073","image-multi-choice","39","287730","0.0-1.0-38.0","{""Q0"":""Yellow Warbler""}","Yellow Warbler","Wood-Warblers","875"
"","3288","image-multi-choice","40","292036","0.0-1.0-39.0","{""Q0"":""Northern Waterthrush""}","Ovenbird","Wood-Warblers","860"
"","12736","image-multi-choice","41","305787","0.0-1.0-40.0","{""Q0"":""Blackburnian Warbler""}","Black-and-white Warbler","Wood-Warblers","864"
"","5385","image-multi-choice","42","312187","0.0-1.0-41.0","{""Q0"":""Orange-crowned Warbler""}","Tennessee Warbler","Wood-Warblers","866"
"","4275","image-multi-choice","43","317477","0.0-1.0-42.0","{""Q0"":""White-crowned Sparrow""}","Song Sparrow","New World Sparrows and Allies","902"
"","3158","image-multi-choice","44","321652","0.0-1.0-43.0","{""Q0"":""Blackburnian Warbler""}","Blackburnian Warbler","Wood-Warblers","874"
"","6676","image-multi-choice","45","329348","0.0-1.0-44.0","{""Q0"":""Blackburnian Warbler""}","Black-and-white Warbler","Wood-Warblers","864"
"","3263","image-multi-choice","46","333628","0.0-1.0-45.0","{""Q0"":""Black-and-white Warbler""}","Magnolia Warbler","Wood-Warblers","758"
"","3558","image-multi-choice","47","338205","0.0-1.0-46.0","{""Q0"":""Ovenbird""}","Ovenbird","Wood-Warblers","860"
"","4054","image-multi-choice","48","343277","0.0-1.0-47.0","{""Q0"":""Lincoln's Sparrow""}","Vesper Sparrow","New World Sparrows and Allies","898"
"","7776","image-multi-choice","49","352069","0.0-1.0-48.0","{""Q0"":""Fox Sparrow""}","Lark Sparrow","New World Sparrows and Allies","899"
"","5121","image-multi-choice","50","358205","0.0-1.0-49.0","{""Q0"":""Blackburnian Warbler""}","Black-and-white Warbler","Wood-Warblers","864"
"","5512","image-multi-choice","51","364734","0.0-1.0-50.0","{""Q0"":""Chipping Sparrow""}","Townsend's Warbler","Wood-Warblers","881"
"","3822","image-multi-choice","52","369574","0.0-1.0-51.0","{""Q0"":""Orange-crowned Warbler""}","Nashville Warbler","Wood-Warblers","868"
"","3569","image-multi-choice","53","374158","0.0-1.0-52.0","{""Q0"":""White-throated Sparrow""}","Chipping Sparrow","New World Sparrows and Allies","769"
"","5898","image-multi-choice","54","381070","0.0-1.0-53.0","{""Q0"":""American Tree Sparrow""}","Swamp Sparrow","New World Sparrows and Allies","904"
"","2976","image-multi-choice","55","385062","0.0-1.0-54.0","{""Q0"":""White-crowned Sparrow""}","White-crowned Sparrow","New World Sparrows and Allies","766"
"","3573","image-multi-choice","56","389654","0.0-1.0-55.0","{""Q0"":""Black-and-white Warbler""}","Black-and-white Warbler","Wood-Warblers","864"
"","5763","image-multi-choice","57","396430","0.0-1.0-56.0","{""Q0"":""Nashville Warbler""}","Tennessee Warbler","Wood-Warblers","866"
"","5808","image-multi-choice","58","403254","0.0-1.0-57.0","{""Q0"":""Blackburnian Warbler""}","Townsend's Warbler","Wood-Warblers","881"
"","3083","image-multi-choice","59","407351","0.0-1.0-58.0","{""Q0"":""Nashville Warbler""}","Nashville Warbler","Wood-Warblers","868"
"","4151","image-multi-choice","60","449293","0.0-1.0-59.0","{""Q0"":""American Tree Sparrow""}","Lincoln's Sparrow","New World Sparrows and Allies","903"
"","4831","image-multi-choice","61","455144","0.0-1.0-60.0","{""Q0"":""Fox Sparrow""}","Song Sparrow","New World Sparrows and Allies","902"
"","4650","image-multi-choice","62","460816","0.0-1.0-61.0","{""Q0"":""Yellow Warbler""}","Yellow Warbler","Wood-Warblers","875"
"","3457","image-multi-choice","63","465297","0.0-1.0-62.0","{""Q0"":""White-throated Sparrow""}","White-throated Sparrow","New World Sparrows and Allies","764"
"","4203","image-multi-choice","64","470519","0.0-1.0-63.0","{""Q0"":""Tennessee Warbler""}","Tennessee Warbler","Wood-Warblers","866"
"","5737","image-multi-choice","65","477272","0.0-1.0-64.0","{""Q0"":""Lincoln's Sparrow""}","Lincoln's Sparrow","New World Sparrows and Allies","903"
"","2963","image-multi-choice","66","481257","0.0-1.0-65.0","{""Q0"":""Blackburnian Warbler""}","Blackburnian Warbler","Wood-Warblers","874"
"","3281","image-multi-choice","67","485552","0.0-1.0-66.0","{""Q0"":""Northern Waterthrush""}","Northern Waterthrush","Wood-Warblers","862"
"","2937","image-multi-choice","68","489505","0.0-1.0-67.0","{""Q0"":""Yellow Warbler""}","Yellow Warbler","Wood-Warblers","875"
"","4333","image-multi-choice","69","494857","0.0-1.0-68.0","{""Q0"":""Fox Sparrow""}","Lincoln's Sparrow","New World Sparrows and Allies","903"
"","7695","image-multi-choice","70","503570","0.0-1.0-69.0","{""Q0"":""Lincoln's Sparrow""}","American Tree Sparrow","New World Sparrows and Allies","894"
"","5185","image-multi-choice","71","509769","0.0-1.0-70.0","{""Q0"":""Orange-crowned Warbler""}","Orange-crowned Warbler","Wood-Warblers","867"
"","3856","image-multi-choice","72","514642","0.0-1.0-71.0","{""Q0"":""Lincoln's Sparrow""}","Lincoln's Sparrow","New World Sparrows and Allies","903"
"","4179","image-multi-choice","73","519843","0.0-1.0-72.0","{""Q0"":""Black-and-white Warbler""}","Magnolia Warbler","Wood-Warblers","758"
"","2986","image-multi-choice","74","523842","0.0-1.0-73.0","{""Q0"":""Lincoln's Sparrow""}","Lincoln's Sparrow","New World Sparrows and Allies","903"
"","2367","image-multi-choice","75","527226","0.0-1.0-74.0","{""Q0"":""Yellow Warbler""}","Yellow Warbler","Wood-Warblers","875"
"","2521","image-multi-choice","76","530763","0.0-1.0-75.0","{""Q0"":""White-crowned Sparrow""}","White-crowned Sparrow","New World Sparrows and Allies","766"
"","4136","image-multi-choice","77","535915","0.0-1.0-76.0","{""Q0"":""Nashville Warbler""}","Nashville Warbler","Wood-Warblers","868"
"","4001","image-multi-choice","78","540931","0.0-1.0-77.0","{""Q0"":""American Tree Sparrow""}","American Tree Sparrow","New World Sparrows and Allies","894"
"","2847","image-multi-choice","79","544811","0.0-1.0-78.0","{""Q0"":""Blackburnian Warbler""}","Townsend's Warbler","Wood-Warblers","881"
"","7106","image-multi-choice","80","552931","0.0-1.0-79.0","{""Q0"":""White-crowned Sparrow""}","Chipping Sparrow","New World Sparrows and Allies","769"
"","2098","image-multi-choice","81","556043","0.0-1.0-80.0","{""Q0"":""White-throated Sparrow""}","White-throated Sparrow","New World Sparrows and Allies","764"
"","7137","image-multi-choice","82","564195","0.0-1.0-81.0","{""Q0"":""Ovenbird""}","Ovenbird","Wood-Warblers","860"
"","2455","image-multi-choice","83","567667","0.0-1.0-82.0","{""Q0"":""White-crowned Sparrow""}","White-crowned Sparrow","New World Sparrows and Allies","766"
"","3910","image-multi-choice","84","572603","0.0-1.0-83.0","{""Q0"":""Blackburnian Warbler""}","Magnolia Warbler","Wood-Warblers","758"
"","1824","image-multi-choice","85","575444","0.0-1.0-84.0","{""Q0"":""Yellow Warbler""}","Yellow Warbler","Wood-Warblers","875"
"","3164","image-multi-choice","86","579628","0.0-1.0-85.0","{""Q0"":""American Tree Sparrow""}","Lark Sparrow","New World Sparrows and Allies","899"
"","4936","image-multi-choice","87","585580","0.0-1.0-86.0","{""Q0"":""Chipping Sparrow""}","Lincoln's Sparrow","New World Sparrows and Allies","903"
"","9106","image-multi-choice","88","595700","0.0-1.0-87.0","{""Q0"":""Swamp Sparrow""}","Black-and-white Warbler","Wood-Warblers","864"
"","6745","image-multi-choice","89","603460","0.0-1.0-88.0","{""Q0"":""White-crowned Sparrow""}","White-crowned Sparrow","New World Sparrows and Allies","766"
"","3747","image-multi-choice","90","608221","0.0-1.0-89.0","{""Q0"":""Blackburnian Warbler""}","Townsend's Warbler","Wood-Warblers","881"
"","2118","image-multi-choice","91","611357","0.0-1.0-90.0","{""Q0"":""White-throated Sparrow""}","White-throated Sparrow","New World Sparrows and Allies","764"
"","5286","image-multi-choice","92","617661","0.0-1.0-91.0","{""Q0"":""Blackburnian Warbler""}","Magnolia Warbler","Wood-Warblers","758"
"","2983","image-multi-choice","93","621661","0.0-1.0-92.0","{""Q0"":""American Tree Sparrow""}","Lincoln's Sparrow","New World Sparrows and Allies","903"
"","10050","image-multi-choice","94","632725","0.0-1.0-93.0","{""Q0"":""Song Sparrow""}","Blackburnian Warbler","Wood-Warblers","874"
"","2337","image-multi-choice","95","636077","0.0-1.0-94.0","{""Q0"":""American Tree Sparrow""}","Vesper Sparrow","New World Sparrows and Allies","898"
"","11151","image-multi-choice","96","648246","0.0-1.0-95.0","{""Q0"":""Swamp Sparrow""}","Lark Sparrow","New World Sparrows and Allies","899"
"","2315","image-multi-choice","97","651575","0.0-1.0-96.0","{""Q0"":""Vesper Sparrow""}","Swamp Sparrow","New World Sparrows and Allies","904"
"","2768","image-multi-choice","98","655358","0.0-1.0-97.0","{""Q0"":""Northern Waterthrush""}","Northern Waterthrush","Wood-Warblers","862"
"","3833","image-multi-choice","99","660206","0.0-1.0-98.0","{""Q0"":""Ovenbird""}","Ovenbird","Wood-Warblers","860"
"","3137","image-multi-choice","100","664359","0.0-1.0-99.0","{""Q0"":""White-crowned Sparrow""}","White-throated Sparrow","New World Sparrows and Allies","764"
"","3710","image-multi-choice","101","669087","0.0-1.0-100.0","{""Q0"":""Orange-crowned Warbler""}","Nashville Warbler","Wood-Warblers","868"
"","4071","image-multi-choice","102","674174","0.0-1.0-101.0","{""Q0"":""Magnolia Warbler""}","Magnolia Warbler","Wood-Warblers","758"
"","3770","image-multi-choice","103","678959","0.0-1.0-102.0","{""Q0"":""Chipping Sparrow""}","Swamp Sparrow","New World Sparrows and Allies","904"
"","2817","image-multi-choice","104","682791","0.0-1.0-103.0","{""Q0"":""Blackburnian Warbler""}","Blackburnian Warbler","Wood-Warblers","874"
"","2514","image-multi-choice","105","686318","0.0-1.0-104.0","{""Q0"":""Northern Waterthrush""}","Northern Waterthrush","Wood-Warblers","862"
"","3510","image-multi-choice","106","690847","0.0-1.0-105.0","{""Q0"":""Fox Sparrow""}","Swamp Sparrow","New World Sparrows and Allies","904"
"","8137","image-multi-choice","107","700000","0.0-1.0-106.0","{""Q0"":""Fox Sparrow""}","Song Sparrow","New World Sparrows and Allies","902"
"","3287","image-multi-choice","108","704304","0.0-1.0-107.0","{""Q0"":""Black-and-white Warbler""}","Black-and-white Warbler","Wood-Warblers","864"
"","3224","image-multi-choice","109","708543","0.0-1.0-108.0","{""Q0"":""Blackburnian Warbler""}","Blackburnian Warbler","Wood-Warblers","874"
"","3427","image-multi-choice","110","712984","0.0-1.0-109.0","{""Q0"":""Nashville Warbler""}","Nashville Warbler","Wood-Warblers","868"
"","3978","image-multi-choice","111","717976","0.0-1.0-110.0","{""Q0"":""Chipping Sparrow""}","Chipping Sparrow","New World Sparrows and Allies","769"
"","2678","image-multi-choice","112","721672","0.0-1.0-111.0","{""Q0"":""Chipping Sparrow""}","American Tree Sparrow","New World Sparrows and Allies","894"
"","3473","image-multi-choice","113","726160","0.0-1.0-112.0","{""Q0"":""Northern Waterthrush""}","Northern Waterthrush","Wood-Warblers","862"
"","1906","image-multi-choice","114","729080","0.0-1.0-113.0","{""Q0"":""Yellow Warbler""}","Yellow Warbler","Wood-Warblers","875"
"","2722","image-multi-choice","115","732817","0.0-1.0-114.0","{""Q0"":""Nashville Warbler""}","Tennessee Warbler","Wood-Warblers","866"
"","3735","image-multi-choice","116","737568","0.0-1.0-115.0","{""Q0"":""Chipping Sparrow""}","Lincoln's Sparrow","New World Sparrows and Allies","903"
"","4433","image-multi-choice","117","743017","0.0-1.0-116.0","{""Q0"":""Blackburnian Warbler""}","Black-and-white Warbler","Wood-Warblers","864"
"","6616","image-multi-choice","118","750649","0.0-1.0-117.0","{""Q0"":""Lincoln's Sparrow""}","Song Sparrow","New World Sparrows and Allies","902"
"","2618","image-multi-choice","119","754282","0.0-1.0-118.0","{""Q0"":""Fox Sparrow""}","Lincoln's Sparrow","New World Sparrows and Allies","903"
"","4175","image-multi-choice","120","767559","0.0-1.0-119.0","{""Q0"":""Magnolia Warbler""}","Blackburnian Warbler","Wood-Warblers","874"
"","4101","image-multi-choice","121","772673","0.0-1.0-120.0","{""Q0"":""Tennessee Warbler""}","Nashville Warbler","Wood-Warblers","868"
"","6003","image-multi-choice","122","779690","0.0-1.0-121.0","{""Q0"":""Vesper Sparrow""}","Vesper Sparrow","New World Sparrows and Allies","898"
"","2530","image-multi-choice","123","783234","0.0-1.0-122.0","{""Q0"":""Blackburnian Warbler""}","Townsend's Warbler","Wood-Warblers","881"
"","3289","image-multi-choice","124","787538","0.0-1.0-123.0","{""Q0"":""Fox Sparrow""}","Song Sparrow","New World Sparrows and Allies","902"
"","2211","image-multi-choice","125","790763","0.0-1.0-124.0","{""Q0"":""White-crowned Sparrow""}","White-throated Sparrow","New World Sparrows and Allies","764"
"","2991","image-multi-choice","126","794772","0.0-1.0-125.0","{""Q0"":""Nashville Warbler""}","Nashville Warbler","Wood-Warblers","868"
"","5494","image-multi-choice","127","801284","0.0-1.0-126.0","{""Q0"":""Lark Sparrow""}","Fox Sparrow","New World Sparrows and Allies","901"
"","2998","image-multi-choice","128","805299","0.0-1.0-127.0","{""Q0"":""Blackburnian Warbler""}","Magnolia Warbler","Wood-Warblers","758"
"","3297","image-multi-choice","129","809611","0.0-1.0-128.0","{""Q0"":""Nashville Warbler""}","Nashville Warbler","Wood-Warblers","868"
"","4451","image-multi-choice","130","815075","0.0-1.0-129.0","{""Q0"":""Chipping Sparrow""}","Swamp Sparrow","New World Sparrows and Allies","904"
"","2559","image-multi-choice","131","818651","0.0-1.0-130.0","{""Q0"":""White-throated Sparrow""}","White-throated Sparrow","New World Sparrows and Allies","764"
"","5222","image-multi-choice","132","824890","0.0-1.0-131.0","{""Q0"":""Song Sparrow""}","Song Sparrow","New World Sparrows and Allies","902"
"","1924","image-multi-choice","133","827827","0.0-1.0-132.0","{""Q0"":""Yellow Warbler""}","Yellow Warbler","Wood-Warblers","875"
"","4072","image-multi-choice","134","832932","0.0-1.0-133.0","{""Q0"":""Blackburnian Warbler""}","Townsend's Warbler","Wood-Warblers","881"
"","4302","image-multi-choice","135","838251","0.0-1.0-134.0","{""Q0"":""Lincoln's Sparrow""}","Fox Sparrow","New World Sparrows and Allies","901"
"","2514","image-multi-choice","136","841780","0.0-1.0-135.0","{""Q0"":""White-crowned Sparrow""}","White-crowned Sparrow","New World Sparrows and Allies","766"
"","4159","image-multi-choice","137","846956","0.0-1.0-136.0","{""Q0"":""Blackburnian Warbler""}","Magnolia Warbler","Wood-Warblers","758"
"","4329","image-multi-choice","138","852299","0.0-1.0-137.0","{""Q0"":""Magnolia Warbler""}","Blackburnian Warbler","Wood-Warblers","874"
"","2817","image-multi-choice","139","856132","0.0-1.0-138.0","{""Q0"":""Blackburnian Warbler""}","Magnolia Warbler","Wood-Warblers","758"
"","4433","image-multi-choice","140","861587","0.0-1.0-139.0","{""Q0"":""Chipping Sparrow""}","Chipping Sparrow","New World Sparrows and Allies","769"
"","5189","image-multi-choice","141","867787","0.0-1.0-140.0","{""Q0"":""Fox Sparrow""}","American Tree Sparrow","New World Sparrows and Allies","894"
"","1905","image-multi-choice","142","870709","0.0-1.0-141.0","{""Q0"":""Yellow Warbler""}","Orange-crowned Warbler","Wood-Warblers","867"
"","7298","image-multi-choice","143","879022","0.0-1.0-142.0","{""Q0"":""Lincoln's Sparrow""}","Fox Sparrow","New World Sparrows and Allies","901"
"","1982","image-multi-choice","144","882021","0.0-1.0-143.0","{""Q0"":""Yellow Warbler""}","Yellow Warbler","Wood-Warblers","875"
"","4328","image-multi-choice","145","887365","0.0-1.0-144.0","{""Q0"":""Chipping Sparrow""}","American Tree Sparrow","New World Sparrows and Allies","894"
"","4028","image-multi-choice","146","892405","0.0-1.0-145.0","{""Q0"":""Fox Sparrow""}","Swamp Sparrow","New World Sparrows and Allies","904"
"","7619","image-multi-choice","147","901038","0.0-1.0-146.0","{""Q0"":""White-throated Sparrow""}","Lark Sparrow","New World Sparrows and Allies","899"
"","3362","image-multi-choice","148","905414","0.0-1.0-147.0","{""Q0"":""Lincoln's Sparrow""}","Vesper Sparrow","New World Sparrows and Allies","898"
"","3977","image-multi-choice","149","910406","0.0-1.0-148.0","{""Q0"":""Northern Waterthrush""}","Fox Sparrow","New World Sparrows and Allies","901"
"","2816","image-multi-choice","150","914237","0.0-1.0-149.0","{""Q0"":""Chipping Sparrow""}","Song Sparrow","New World Sparrows and Allies","902"
"","5273","image-multi-choice","151","920525","0.0-1.0-150.0","{""Q0"":""Lark Sparrow""}","Blackburnian Warbler","Wood-Warblers","874"
"","7154","image-multi-choice","152","928693","0.0-1.0-151.0","{""Q0"":""Yellow Warbler""}","Orange-crowned Warbler","Wood-Warblers","867"
"","6716","image-multi-choice","153","936423","0.0-1.0-152.0","{""Q0"":""Fox Sparrow""}","Fox Sparrow","New World Sparrows and Allies","901"
"","4010","image-multi-choice","154","941446","0.0-1.0-153.0","{""Q0"":""Orange-crowned Warbler""}","Orange-crowned Warbler","Wood-Warblers","867"
"","3314","image-multi-choice","155","945774","0.0-1.0-154.0","{""Q0"":""Magnolia Warbler""}","Townsend's Warbler","Wood-Warblers","881"
"","7820","image-multi-choice","156","954610","0.0-1.0-155.0","{""Q0"":""Northern Waterthrush""}","Ovenbird","Wood-Warblers","860"
"","7135","image-multi-choice","157","962762","0.0-1.0-156.0","{""Q0"":""Townsend's Warbler""}","Nashville Warbler","Wood-Warblers","868"
"","5600","image-multi-choice","158","969377","0.0-1.0-157.0","{""Q0"":""Lincoln's Sparrow""}","Song Sparrow","New World Sparrows and Allies","902"
"","2729","image-multi-choice","159","973121","0.0-1.0-158.0","{""Q0"":""Yellow Warbler""}","Yellow Warbler","Wood-Warblers","875"
"","2714","image-multi-choice","160","976849","0.0-1.0-159.0","{""Q0"":""Fox Sparrow""}","Fox Sparrow","New World Sparrows and Allies","901"
"","2114","image-multi-choice","161","979976","0.0-1.0-160.0","{""Q0"":""Black-and-white Warbler""}","Black-and-white Warbler","Wood-Warblers","864"
"","18386","image-multi-choice","162","999377","0.0-1.0-161.0","{""Q0"":""American Tree Sparrow""}","Orange-crowned Warbler","Wood-Warblers","867"
"","6053","image-multi-choice","163","1006450","0.0-1.0-162.0","{""Q0"":""Chipping Sparrow""}","American Tree Sparrow","New World Sparrows and Allies","894"
"","9514","image-multi-choice","164","1016982","0.0-1.0-163.0","{""Q0"":""Nashville Warbler""}","Townsend's Warbler","Wood-Warblers","881"
"","9372","image-multi-choice","165","1027388","0.0-1.0-164.0","{""Q0"":""Song Sparrow""}","Song Sparrow","New World Sparrows and Allies","902"
"","5048","image-multi-choice","166","1033457","0.0-1.0-165.0","{""Q0"":""Orange-crowned Warbler""}","Nashville Warbler","Wood-Warblers","868"
"","5971","image-multi-choice","167","1040451","0.0-1.0-166.0","{""Q0"":""Nashville Warbler""}","Tennessee Warbler","Wood-Warblers","866"
"","3590","image-multi-choice","168","1045066","0.0-1.0-167.0","{""Q0"":""Chipping Sparrow""}","Chipping Sparrow","New World Sparrows and Allies","769"
"","6801","image-multi-choice","169","1052891","0.0-1.0-168.0","{""Q0"":""Tennessee Warbler""}","Ovenbird","Wood-Warblers","860"
"","7027","image-multi-choice","170","1060939","0.0-1.0-169.0","{""Q0"":""White-crowned Sparrow""}","White-throated Sparrow","New World Sparrows and Allies","764"
"","5874","image-multi-choice","171","1067835","0.0-1.0-170.0","{""Q0"":""Fox Sparrow""}","Fox Sparrow","New World Sparrows and Allies","901"
"","7384","image-multi-choice","172","1076236","0.0-1.0-171.0","{""Q0"":""Magnolia Warbler""}","Blackburnian Warbler","Wood-Warblers","874"
"","3799","image-multi-choice","173","1081051","0.0-1.0-172.0","{""Q0"":""American Tree Sparrow""}","American Tree Sparrow","New World Sparrows and Allies","894"
"","4474","image-multi-choice","174","1086546","0.0-1.0-173.0","{""Q0"":""Chipping Sparrow""}","Swamp Sparrow","New World Sparrows and Allies","904"
"","9593","image-multi-choice","175","1097156","0.0-1.0-174.0","{""Q0"":""Townsend's Warbler""}","Townsend's Warbler","Wood-Warblers","881"
"","4758","image-multi-choice","176","1102932","0.0-1.0-175.0","{""Q0"":""Tennessee Warbler""}","Tennessee Warbler","Wood-Warblers","866"
"","4798","image-multi-choice","177","1108749","0.0-1.0-176.0","{""Q0"":""Northern Waterthrush""}","Northern Waterthrush","Wood-Warblers","862"
"","4617","image-multi-choice","178","1114380","0.0-1.0-177.0","{""Q0"":""Lincoln's Sparrow""}","Swamp Sparrow","New World Sparrows and Allies","904"
"","3167","image-multi-choice","179","1118564","0.0-1.0-178.0","{""Q0"":""Fox Sparrow""}","Fox Sparrow","New World Sparrows and Allies","901"
"","3234","image-multi-choice","180","1132690","0.0-1.0-179.0","{""Q0"":""American Tree Sparrow""}","American Tree Sparrow","New World Sparrows and Allies","894"
"","3418","image-multi-choice","181","1137125","0.0-1.0-180.0","{""Q0"":""Lark Sparrow""}","Fox Sparrow","New World Sparrows and Allies","901"
"","3174","image-multi-choice","182","1141317","0.0-1.0-181.0","{""Q0"":""Fox Sparrow""}","Vesper Sparrow","New World Sparrows and Allies","898"
"","3146","image-multi-choice","183","1145486","0.0-1.0-182.0","{""Q0"":""Chipping Sparrow""}","Song Sparrow","New World Sparrows and Allies","902"
"","6209","image-multi-choice","184","1152710","0.0-1.0-183.0","{""Q0"":""Blackburnian Warbler""}","Blackburnian Warbler","Wood-Warblers","874"
"","3934","image-multi-choice","185","1157662","0.0-1.0-184.0","{""Q0"":""White-crowned Sparrow""}","White-crowned Sparrow","New World Sparrows and Allies","766"
"","4494","image-multi-choice","186","1163174","0.0-1.0-185.0","{""Q0"":""Lincoln's Sparrow""}","American Tree Sparrow","New World Sparrows and Allies","894"
"","2485","image-multi-choice","187","1166678","0.0-1.0-186.0","{""Q0"":""Blackburnian Warbler""}","Black-and-white Warbler","Wood-Warblers","864"
"","4246","image-multi-choice","188","1171942","0.0-1.0-187.0","{""Q0"":""Fox Sparrow""}","Lark Sparrow","New World Sparrows and Allies","899"
"","2592","image-multi-choice","189","1175551","0.0-1.0-188.0","{""Q0"":""Tennessee Warbler""}","Nashville Warbler","Wood-Warblers","868"
"","2995","image-multi-choice","190","1179567","0.0-1.0-189.0","{""Q0"":""Northern Waterthrush""}","Northern Waterthrush","Wood-Warblers","862"
"","7128","image-multi-choice","191","1187710","0.0-1.0-190.0","{""Q0"":""Orange-crowned Warbler""}","Tennessee Warbler","Wood-Warblers","866"
"","5871","image-multi-choice","192","1194598","0.0-1.0-191.0","{""Q0"":""Nashville Warbler""}","Nashville Warbler","Wood-Warblers","868"
"","5044","image-multi-choice","193","1200657","0.0-1.0-192.0","{""Q0"":""White-throated Sparrow""}","Fox Sparrow","New World Sparrows and Allies","901"
"","7182","image-multi-choice","194","1208855","0.0-1.0-193.0","{""Q0"":""American Tree Sparrow""}","Blackburnian Warbler","Wood-Warblers","874"
"","2347","image-multi-choice","195","1212217","0.0-1.0-194.0","{""Q0"":""White-throated Sparrow""}","Swamp Sparrow","New World Sparrows and Allies","904"
"","2460","image-multi-choice","196","1215695","0.0-1.0-195.0","{""Q0"":""Blackburnian Warbler""}","Townsend's Warbler","Wood-Warblers","881"
"","2970","image-multi-choice","197","1219680","0.0-1.0-196.0","{""Q0"":""Nashville Warbler""}","Tennessee Warbler","Wood-Warblers","866"
"","2263","image-multi-choice","198","1222960","0.0-1.0-197.0","{""Q0"":""White-crowned Sparrow""}","White-crowned Sparrow","New World Sparrows and Allies","766"
"","3308","image-multi-choice","199","1227283","0.0-1.0-198.0","{""Q0"":""Ovenbird""}","Ovenbird","Wood-Warblers","860"
"","3394","image-multi-choice","200","1231696","0.0-1.0-199.0","{""Q0"":""Lincoln's Sparrow""}","Vesper Sparrow","New World Sparrows and Allies","898"
"","4903","image-multi-choice","201","1237616","0.0-1.0-200.0","{""Q0"":""Magnolia Warbler""}","Blackburnian Warbler","Wood-Warblers","874"
"","2875","image-multi-choice","202","1241504","0.0-1.0-201.0","{""Q0"":""Chipping Sparrow""}","Chipping Sparrow","New World Sparrows and Allies","769"
"","2482","image-multi-choice","203","1245000","0.0-1.0-202.0","{""Q0"":""White-throated Sparrow""}","Vesper Sparrow","New World Sparrows and Allies","898"
"","2298","image-multi-choice","204","1248312","0.0-1.0-203.0","{""Q0"":""Yellow Warbler""}","Yellow Warbler","Wood-Warblers","875"
"","3342","image-multi-choice","205","1252673","0.0-1.0-204.0","{""Q0"":""Nashville Warbler""}","Orange-crowned Warbler","Wood-Warblers","867"
"","3147","image-multi-choice","206","1256833","0.0-1.0-205.0","{""Q0"":""White-throated Sparrow""}","White-throated Sparrow","New World Sparrows and Allies","764"
"","2612","image-multi-choice","207","1260465","0.0-1.0-206.0","{""Q0"":""Nashville Warbler""}","American Tree Sparrow","New World Sparrows and Allies","894"
"","2878","image-multi-choice","208","1264362","0.0-1.0-207.0","{""Q0"":""Tennessee Warbler""}","Orange-crowned Warbler","Wood-Warblers","867"
"","2711","image-multi-choice","209","1268088","0.0-1.0-208.0","{""Q0"":""Black-and-white Warbler""}","Black-and-white Warbler","Wood-Warblers","864"
"","3705","image-multi-choice","210","1272810","0.0-1.0-209.0","{""Q0"":""American Tree Sparrow""}","Lark Sparrow","New World Sparrows and Allies","899"
"","3215","image-multi-choice","211","1277042","0.0-1.0-210.0","{""Q0"":""White-crowned Sparrow""}","Chipping Sparrow","New World Sparrows and Allies","769"
"","2993","image-multi-choice","212","1281050","0.0-1.0-211.0","{""Q0"":""Nashville Warbler""}","Orange-crowned Warbler","Wood-Warblers","867"
"","2122","image-multi-choice","213","1284187","0.0-1.0-212.0","{""Q0"":""Yellow Warbler""}","Yellow Warbler","Wood-Warblers","875"
"","3573","image-multi-choice","214","1288778","0.0-1.0-213.0","{""Q0"":""Fox Sparrow""}","American Tree Sparrow","New World Sparrows and Allies","894"
"","4443","image-multi-choice","215","1294235","0.0-1.0-214.0","{""Q0"":""Song Sparrow""}","Vesper Sparrow","New World Sparrows and Allies","898"
"","3606","image-multi-choice","216","1298874","0.0-1.0-215.0","{""Q0"":""Northern Waterthrush""}","Ovenbird","Wood-Warblers","860"
"","3595","image-multi-choice","217","1303482","0.0-1.0-216.0","{""Q0"":""American Tree Sparrow""}","Lark Sparrow","New World Sparrows and Allies","899"
"","3232","image-multi-choice","218","1307731","0.0-1.0-217.0","{""Q0"":""Fox Sparrow""}","Lincoln's Sparrow","New World Sparrows and Allies","903"
"","3226","image-multi-choice","219","1311987","0.0-1.0-218.0","{""Q0"":""Chipping Sparrow""}","Chipping Sparrow","New World Sparrows and Allies","769"
"","3065","image-multi-choice","220","1316068","0.0-1.0-219.0","{""Q0"":""Chipping Sparrow""}","Lincoln's Sparrow","New World Sparrows and Allies","903"
"","5125","image-multi-choice","221","1322210","0.0-1.0-220.0","{""Q0"":""Townsend's Warbler""}","Northern Waterthrush","Wood-Warblers","862"
"","5480","image-multi-choice","222","1328707","0.0-1.0-221.0","{""Q0"":""Chipping Sparrow""}","Chipping Sparrow","New World Sparrows and Allies","769"
"","2890","image-multi-choice","223","1332611","0.0-1.0-222.0","{""Q0"":""American Tree Sparrow""}","Lincoln's Sparrow","New World Sparrows and Allies","903"
"","3430","image-multi-choice","224","1337060","0.0-1.0-223.0","{""Q0"":""Blackburnian Warbler""}","Blackburnian Warbler","Wood-Warblers","874"
"","3248","image-multi-choice","225","1341324","0.0-1.0-224.0","{""Q0"":""Lincoln's Sparrow""}","Swamp Sparrow","New World Sparrows and Allies","904"
"","5605","image-multi-choice","226","1347948","0.0-1.0-225.0","{""Q0"":""Lark Sparrow""}","American Tree Sparrow","New World Sparrows and Allies","894"
"","2827","image-multi-choice","227","1351788","0.0-1.0-226.0","{""Q0"":""White-throated Sparrow""}","Fox Sparrow","New World Sparrows and Allies","901"
"","3520","image-multi-choice","228","1356324","0.0-1.0-227.0","{""Q0"":""Northern Waterthrush""}","Northern Waterthrush","Wood-Warblers","862"
"","2358","image-multi-choice","229","1359699","0.0-1.0-228.0","{""Q0"":""Nashville Warbler""}","Nashville Warbler","Wood-Warblers","868"
"","3694","image-multi-choice","230","1364411","0.0-1.0-229.0","{""Q0"":""Blackburnian Warbler""}","Black-and-white Warbler","Wood-Warblers","864"
"","6051","image-multi-choice","231","1371476","0.0-1.0-230.0","{""Q0"":""Nashville Warbler""}","Tennessee Warbler","Wood-Warblers","866"
"","3943","image-multi-choice","232","1376436","0.0-1.0-231.0","{""Q0"":""Magnolia Warbler""}","Townsend's Warbler","Wood-Warblers","881"
"","3041","image-multi-choice","233","1380493","0.0-1.0-232.0","{""Q0"":""Magnolia Warbler""}","Magnolia Warbler","Wood-Warblers","758"
"","3485","image-multi-choice","234","1384997","0.0-1.0-233.0","{""Q0"":""Northern Waterthrush""}","Northern Waterthrush","Wood-Warblers","862"
"","3801","image-multi-choice","235","1389812","0.0-1.0-234.0","{""Q0"":""Tennessee Warbler""}","Orange-crowned Warbler","Wood-Warblers","867"
"","3714","image-multi-choice","236","1394541","0.0-1.0-235.0","{""Q0"":""White-throated Sparrow""}","White-throated Sparrow","New World Sparrows and Allies","764"
"","1651","image-multi-choice","237","1397205","0.0-1.0-236.0","{""Q0"":""Yellow Warbler""}","Yellow Warbler","Wood-Warblers","875"
"","2109","image-multi-choice","238","1400333","0.0-1.0-237.0","{""Q0"":""White-throated Sparrow""}","Fox Sparrow","New World Sparrows and Allies","901"
"","3219","image-multi-choice","239","1404565","0.0-1.0-238.0","{""Q0"":""Chipping Sparrow""}","Swamp Sparrow","New World Sparrows and Allies","904"
"","2786","image-multi-choice","240","1421971","0.0-1.0-239.0","{""Q0"":""White-throated Sparrow""}","Fox Sparrow","New World Sparrows and Allies","901"
"","6393","image-multi-choice","241","1429382","0.0-1.0-240.0","{""Q0"":""Nashville Warbler""}","Orange-crowned Warbler","Wood-Warblers","867"
"","4419","image-multi-choice","242","1434814","0.0-1.0-241.0","{""Q0"":""White-crowned Sparrow""}","White-crowned Sparrow","New World Sparrows and Allies","766"
"","2905","image-multi-choice","243","1438734","0.0-1.0-242.0","{""Q0"":""Lark Sparrow""}","White-throated Sparrow","New World Sparrows and Allies","764"
"","3042","image-multi-choice","244","1442791","0.0-1.0-243.0","{""Q0"":""Fox Sparrow""}","Song Sparrow","New World Sparrows and Allies","902"
"","2600","image-multi-choice","245","1446406","0.0-1.0-244.0","{""Q0"":""Lark Sparrow""}","Lark Sparrow","New World Sparrows and Allies","899"
"","4344","image-multi-choice","246","1451767","0.0-1.0-245.0","{""Q0"":""Vesper Sparrow""}","Vesper Sparrow","New World Sparrows and Allies","898"
"","2883","image-multi-choice","247","1455663","0.0-1.0-246.0","{""Q0"":""Lark Sparrow""}","Lark Sparrow","New World Sparrows and Allies","899"
"","9894","image-multi-choice","248","1466575","0.0-1.0-247.0","{""Q0"":""American Tree Sparrow""}","American Tree Sparrow","New World Sparrows and Allies","894"
"","2586","image-multi-choice","249","1470176","0.0-1.0-248.0","{""Q0"":""Black-and-white Warbler""}","Black-and-white Warbler","Wood-Warblers","864"
"","3186","image-multi-choice","250","1474376","0.0-1.0-249.0","{""Q0"":""Lark Sparrow""}","Lark Sparrow","New World Sparrows and Allies","899"
"","11185","image-multi-choice","251","1486575","0.0-1.0-250.0","{""Q0"":""Yellow Warbler""}","Orange-crowned Warbler","Wood-Warblers","867"
"","12667","image-multi-choice","252","1500257","0.0-1.0-251.0","{""Q0"":""Nashville Warbler""}","Blackburnian Warbler","Wood-Warblers","874"
"","6176","image-multi-choice","253","1507449","0.0-1.0-252.0","{""Q0"":""Vesper Sparrow""}","Vesper Sparrow","New World Sparrows and Allies","898"
"","4383","image-multi-choice","254","1512849","0.0-1.0-253.0","{""Q0"":""Magnolia Warbler""}","Townsend's Warbler","Wood-Warblers","881"
"","7195","image-multi-choice","255","1521057","0.0-1.0-254.0","{""Q0"":""Chipping Sparrow""}","Swamp Sparrow","New World Sparrows and Allies","904"
"","13921","image-multi-choice","256","1535993","0.0-1.0-255.0","{""Q0"":""Swamp Sparrow""}","Song Sparrow","New World Sparrows and Allies","902"
"","5089","image-multi-choice","257","1542097","0.0-1.0-256.0","{""Q0"":""Chipping Sparrow""}","Swamp Sparrow","New World Sparrows and Allies","904"
"","3705","image-multi-choice","258","1546817","0.0-1.0-257.0","{""Q0"":""Ovenbird""}","Ovenbird","Wood-Warblers","860"
"","3224","image-multi-choice","259","1551058","0.0-1.0-258.0","{""Q0"":""Black-and-white Warbler""}","Black-and-white Warbler","Wood-Warblers","864"
"","4739","image-multi-choice","260","1556811","0.0-1.0-259.0","{""Q0"":""American Tree Sparrow""}","American Tree Sparrow","New World Sparrows and Allies","894"
"","2089","image-multi-choice","261","1559914","0.0-1.0-260.0","{""Q0"":""Yellow Warbler""}","Yellow Warbler","Wood-Warblers","875"
"","3600","image-multi-choice","262","1564532","0.0-1.0-261.0","{""Q0"":""Vesper Sparrow""}","Vesper Sparrow","New World Sparrows and Allies","898"
"","3750","image-multi-choice","263","1569298","0.0-1.0-262.0","{""Q0"":""American Tree Sparrow""}","Chipping Sparrow","New World Sparrows and Allies","769"
"","4738","image-multi-choice","264","1575051","0.0-1.0-263.0","{""Q0"":""Northern Waterthrush""}","Northern Waterthrush","Wood-Warblers","862"
"","5832","image-multi-choice","265","1581897","0.0-1.0-264.0","{""Q0"":""Song Sparrow""}","Song Sparrow","New World Sparrows and Allies","902"
"","7797","image-multi-choice","266","1590708","0.0-1.0-265.0","{""Q0"":""Orange-crowned Warbler""}","Nashville Warbler","Wood-Warblers","868"
"","6731","image-multi-choice","267","1598452","0.0-1.0-266.0","{""Q0"":""White-crowned Sparrow""}","White-throated Sparrow","New World Sparrows and Allies","764"
"","2907","image-multi-choice","268","1602372","0.0-1.0-267.0","{""Q0"":""White-crowned Sparrow""}","White-crowned Sparrow","New World Sparrows and Allies","766"
"","4684","image-multi-choice","269","1608076","0.0-1.0-268.0","{""Q0"":""Chipping Sparrow""}","American Tree Sparrow","New World Sparrows and Allies","894"
"","2146","image-multi-choice","270","1611236","0.0-1.0-269.0","{""Q0"":""Lark Sparrow""}","White-throated Sparrow","New World Sparrows and Allies","764"
"","3930","image-multi-choice","271","1616180","0.0-1.0-270.0","{""Q0"":""White-crowned Sparrow""}","White-crowned Sparrow","New World Sparrows and Allies","766"
"","1841","image-multi-choice","272","1619035","0.0-1.0-271.0","{""Q0"":""Yellow Warbler""}","Yellow Warbler","Wood-Warblers","875"
"","3154","image-multi-choice","273","1623204","0.0-1.0-272.0","{""Q0"":""American Tree Sparrow""}","Chipping Sparrow","New World Sparrows and Allies","769"
"","7162","image-multi-choice","274","1631381","0.0-1.0-273.0","{""Q0"":""Northern Waterthrush""}","Ovenbird","Wood-Warblers","860"
"","5745","image-multi-choice","275","1638141","0.0-1.0-274.0","{""Q0"":""Northern Waterthrush""}","Northern Waterthrush","Wood-Warblers","862"
"","5784","image-multi-choice","276","1644941","0.0-1.0-275.0","{""Q0"":""Northern Waterthrush""}","Ovenbird","Wood-Warblers","860"
"","2753","image-multi-choice","277","1648709","0.0-1.0-276.0","{""Q0"":""Black-and-white Warbler""}","Black-and-white Warbler","Wood-Warblers","864"
"","4531","image-multi-choice","278","1654253","0.0-1.0-277.0","{""Q0"":""Chipping Sparrow""}","Chipping Sparrow","New World Sparrows and Allies","769"
"","3282","image-multi-choice","279","1658550","0.0-1.0-278.0","{""Q0"":""Fox Sparrow""}","Fox Sparrow","New World Sparrows and Allies","901"
"","3138","image-multi-choice","280","1662701","0.0-1.0-279.0","{""Q0"":""Magnolia Warbler""}","Magnolia Warbler","Wood-Warblers","758"
"","2433","image-multi-choice","281","1666150","0.0-1.0-280.0","{""Q0"":""White-crowned Sparrow""}","White-crowned Sparrow","New World Sparrows and Allies","766"
"","2584","image-multi-choice","282","1669749","0.0-1.0-281.0","{""Q0"":""White-throated Sparrow""}","White-throated Sparrow","New World Sparrows and Allies","764"
"","4674","image-multi-choice","283","1675438","0.0-1.0-282.0","{""Q0"":""Swamp Sparrow""}","Swamp Sparrow","New World Sparrows and Allies","904"
"","6769","image-multi-choice","284","1683222","0.0-1.0-283.0","{""Q0"":""Nashville Warbler""}","Magnolia Warbler","Wood-Warblers","758"
"","3738","image-multi-choice","285","1687974","0.0-1.0-284.0","{""Q0"":""Orange-crowned Warbler""}","Orange-crowned Warbler","Wood-Warblers","867"
"","2561","image-multi-choice","286","1691551","0.0-1.0-285.0","{""Q0"":""Magnolia Warbler""}","Magnolia Warbler","Wood-Warblers","758"
"","8173","image-multi-choice","287","1700742","0.0-1.0-286.0","{""Q0"":""Swamp Sparrow""}","Vesper Sparrow","New World Sparrows and Allies","898"
"","2818","image-multi-choice","288","1704575","0.0-1.0-287.0","{""Q0"":""Ovenbird""}","Northern Waterthrush","Wood-Warblers","862"
"","3567","image-multi-choice","289","1709158","0.0-1.0-288.0","{""Q0"":""Black-and-white Warbler""}","Blackburnian Warbler","Wood-Warblers","874"
"","4619","image-multi-choice","290","1714790","0.0-1.0-289.0","{""Q0"":""Townsend's Warbler""}","Tennessee Warbler","Wood-Warblers","866"
"","2603","image-multi-choice","291","1718407","0.0-1.0-290.0","{""Q0"":""Lark Sparrow""}","Lark Sparrow","New World Sparrows and Allies","899"
"","2170","image-multi-choice","292","1721592","0.0-1.0-291.0","{""Q0"":""Black-and-white Warbler""}","Black-and-white Warbler","Wood-Warblers","864"
"","4019","image-multi-choice","293","1726624","0.0-1.0-292.0","{""Q0"":""Swamp Sparrow""}","Lincoln's Sparrow","New World Sparrows and Allies","903"
"","5634","image-multi-choice","294","1733272","0.0-1.0-293.0","{""Q0"":""Tennessee Warbler""}","Tennessee Warbler","Wood-Warblers","866"
"","4673","image-multi-choice","295","1738959","0.0-1.0-294.0","{""Q0"":""Northern Waterthrush""}","Ovenbird","Wood-Warblers","860"
"","3066","image-multi-choice","296","1743039","0.0-1.0-295.0","{""Q0"":""Vesper Sparrow""}","Vesper Sparrow","New World Sparrows and Allies","898"
"","15102","image-multi-choice","297","1759159","0.0-1.0-296.0","{""Q0"":""Townsend's Warbler""}","Northern Waterthrush","Wood-Warblers","862"
"","3785","image-multi-choice","298","1763959","0.0-1.0-297.0","{""Q0"":""Chipping Sparrow""}","Chipping Sparrow","New World Sparrows and Allies","769"
"","2656","image-multi-choice","299","1767633","0.0-1.0-298.0","{""Q0"":""Lark Sparrow""}","Lark Sparrow","New World Sparrows and Allies","899"
"","1610","image-multi-choice","300","1787847","0.0-1.0-299.0","{""Q0"":""Yellow Warbler""}","Yellow Warbler","Wood-Warblers","875"
"[{""page_index"":0,""viewing_time"":1573}]","1574","instructions","301","1790423","0.0-2.0","","","",""
