"view_history","rt","trial_type","trial_index","time_elapsed","internal_node_id","responses","bird","family","class"
"[{""page_index"":0,""viewing_time"":18367}]","18368","instructions","0","18371","0.0-0.0","","","",""
"","22626","image-multi-choice","1","42028","0.0-1.0-0.0","{""Q0"":""American Tree Sparrow""}","American Tree Sparrow","New World Sparrows and Allies","894"
"","12654","image-multi-choice","2","55713","0.0-1.0-1.0","{""Q0"":""Orange-crowned Warbler""}","Tennessee Warbler","Wood-Warblers","866"
"","5586","image-multi-choice","3","62319","0.0-1.0-2.0","{""Q0"":""White-crowned Sparrow""}","White-crowned Sparrow","New World Sparrows and Allies","766"
"","55719","image-multi-choice","4","119056","0.0-1.0-3.0","{""Q0"":""Swamp Sparrow""}","American Tree Sparrow","New World Sparrows and Allies","894"
"","6598","image-multi-choice","5","126679","0.0-1.0-4.0","{""Q0"":""White-crowned Sparrow""}","White-crowned Sparrow","New World Sparrows and Allies","766"
"","25025","image-multi-choice","6","152728","0.0-1.0-5.0","{""Q0"":""Tennessee Warbler""}","Townsend's Warbler","Wood-Warblers","881"
"","7736","image-multi-choice","7","161488","0.0-1.0-6.0","{""Q0"":""Vesper Sparrow""}","Vesper Sparrow","New World Sparrows and Allies","898"
"","15796","image-multi-choice","8","178303","0.0-1.0-7.0","{""Q0"":""Nashville Warbler""}","Nashville Warbler","Wood-Warblers","868"
"","19475","image-multi-choice","9","198800","0.0-1.0-8.0","{""Q0"":""Ovenbird""}","Northern Waterthrush","Wood-Warblers","862"
"","21821","image-multi-choice","10","221632","0.0-1.0-9.0","{""Q0"":""Song Sparrow""}","Ovenbird","Wood-Warblers","860"
"","8556","image-multi-choice","11","231208","0.0-1.0-10.0","{""Q0"":""Vesper Sparrow""}","Lincoln's Sparrow","New World Sparrows and Allies","903"
"","8981","image-multi-choice","12","241208","0.0-1.0-11.0","{""Q0"":""Black-and-white Warbler""}","Townsend's Warbler","Wood-Warblers","881"
"","6268","image-multi-choice","13","248499","0.0-1.0-12.0","{""Q0"":""Song Sparrow""}","Fox Sparrow","New World Sparrows and Allies","901"
"","38333","image-multi-choice","14","287855","0.0-1.0-13.0","{""Q0"":""Nashville Warbler""}","Blackburnian Warbler","Wood-Warblers","874"
"","16838","image-multi-choice","15","305711","0.0-1.0-14.0","{""Q0"":""Chipping Sparrow""}","Vesper Sparrow","New World Sparrows and Allies","898"
"","5194","image-multi-choice","16","311923","0.0-1.0-15.0","{""Q0"":""Black-and-white Warbler""}","Black-and-white Warbler","Wood-Warblers","864"
"","12533","image-multi-choice","17","325472","0.0-1.0-16.0","{""Q0"":""Orange-crowned Warbler""}","Nashville Warbler","Wood-Warblers","868"
"","16035","image-multi-choice","18","342528","0.0-1.0-17.0","{""Q0"":""Swamp Sparrow""}","Lincoln's Sparrow","New World Sparrows and Allies","903"
"","8606","image-multi-choice","19","352160","0.0-1.0-18.0","{""Q0"":""Orange-crowned Warbler""}","Nashville Warbler","Wood-Warblers","868"
"","16834","image-multi-choice","20","370018","0.0-1.0-19.0","{""Q0"":""Lark Sparrow""}","Lark Sparrow","New World Sparrows and Allies","899"
"","9113","image-multi-choice","21","380151","0.0-1.0-20.0","{""Q0"":""Blackburnian Warbler""}","Magnolia Warbler","Wood-Warblers","758"
"","11854","image-multi-choice","22","393024","0.0-1.0-21.0","{""Q0"":""Tennessee Warbler""}","Townsend's Warbler","Wood-Warblers","881"
"","9815","image-multi-choice","23","403857","0.0-1.0-22.0","{""Q0"":""Lark Sparrow""}","Swamp Sparrow","New World Sparrows and Allies","904"
"","9531","image-multi-choice","24","414407","0.0-1.0-23.0","{""Q0"":""Orange-crowned Warbler""}","Tennessee Warbler","Wood-Warblers","866"
"","8919","image-multi-choice","25","424344","0.0-1.0-24.0","{""Q0"":""Ovenbird""}","Ovenbird","Wood-Warblers","860"
"","5520","image-multi-choice","26","430885","0.0-1.0-25.0","{""Q0"":""White-throated Sparrow""}","White-crowned Sparrow","New World Sparrows and Allies","766"
"","7343","image-multi-choice","27","439248","0.0-1.0-26.0","{""Q0"":""Vesper Sparrow""}","Vesper Sparrow","New World Sparrows and Allies","898"
"","7132","image-multi-choice","28","447400","0.0-1.0-27.0","{""Q0"":""Yellow Warbler""}","Orange-crowned Warbler","Wood-Warblers","867"
"","7586","image-multi-choice","29","456008","0.0-1.0-28.0","{""Q0"":""Chipping Sparrow""}","American Tree Sparrow","New World Sparrows and Allies","894"
"","10337","image-multi-choice","30","467363","0.0-1.0-29.0","{""Q0"":""Magnolia Warbler""}","Tennessee Warbler","Wood-Warblers","866"
"","7691","image-multi-choice","31","476072","0.0-1.0-30.0","{""Q0"":""Black-and-white Warbler""}","Magnolia Warbler","Wood-Warblers","758"
"","8698","image-multi-choice","32","485792","0.0-1.0-31.0","{""Q0"":""Blackburnian Warbler""}","Blackburnian Warbler","Wood-Warblers","874"
"","5522","image-multi-choice","33","492336","0.0-1.0-32.0","{""Q0"":""Orange-crowned Warbler""}","Tennessee Warbler","Wood-Warblers","866"
"","7796","image-multi-choice","34","501152","0.0-1.0-33.0","{""Q0"":""American Tree Sparrow""}","Vesper Sparrow","New World Sparrows and Allies","898"
"","8062","image-multi-choice","35","510232","0.0-1.0-34.0","{""Q0"":""Magnolia Warbler""}","Orange-crowned Warbler","Wood-Warblers","867"
"","3174","image-multi-choice","36","514424","0.0-1.0-35.0","{""Q0"":""White-crowned Sparrow""}","White-crowned Sparrow","New World Sparrows and Allies","766"
"","16484","image-multi-choice","37","531927","0.0-1.0-36.0","{""Q0"":""Fox Sparrow""}","Fox Sparrow","New World Sparrows and Allies","901"
"","18085","image-multi-choice","38","551031","0.0-1.0-37.0","{""Q0"":""American Tree Sparrow""}","Swamp Sparrow","New World Sparrows and Allies","904"
"","7136","image-multi-choice","39","559185","0.0-1.0-38.0","{""Q0"":""Yellow Warbler""}","Yellow Warbler","Wood-Warblers","875"
"","18624","image-multi-choice","40","578832","0.0-1.0-39.0","{""Q0"":""Black-and-white Warbler""}","Black-and-white Warbler","Wood-Warblers","864"
"","6498","image-multi-choice","41","586347","0.0-1.0-40.0","{""Q0"":""Fox Sparrow""}","Fox Sparrow","New World Sparrows and Allies","901"
"","10157","image-multi-choice","42","597512","0.0-1.0-41.0","{""Q0"":""Ovenbird""}","Northern Waterthrush","Wood-Warblers","862"
"","10267","image-multi-choice","43","608799","0.0-1.0-42.0","{""Q0"":""Orange-crowned Warbler""}","Nashville Warbler","Wood-Warblers","868"
"","6780","image-multi-choice","44","616600","0.0-1.0-43.0","{""Q0"":""Blackburnian Warbler""}","Blackburnian Warbler","Wood-Warblers","874"
"","6557","image-multi-choice","45","624176","0.0-1.0-44.0","{""Q0"":""Magnolia Warbler""}","Orange-crowned Warbler","Wood-Warblers","867"
"","6795","image-multi-choice","46","631992","0.0-1.0-45.0","{""Q0"":""American Tree Sparrow""}","Blackburnian Warbler","Wood-Warblers","874"
"","10312","image-multi-choice","47","643328","0.0-1.0-46.0","{""Q0"":""Townsend's Warbler""}","Nashville Warbler","Wood-Warblers","868"
"","5090","image-multi-choice","48","649436","0.0-1.0-47.0","{""Q0"":""Ovenbird""}","Northern Waterthrush","Wood-Warblers","862"
"","6762","image-multi-choice","49","657215","0.0-1.0-48.0","{""Q0"":""Song Sparrow""}","Fox Sparrow","New World Sparrows and Allies","901"
"","8355","image-multi-choice","50","666591","0.0-1.0-49.0","{""Q0"":""American Tree Sparrow""}","Swamp Sparrow","New World Sparrows and Allies","904"
"","8999","image-multi-choice","51","676607","0.0-1.0-50.0","{""Q0"":""Nashville Warbler""}","Nashville Warbler","Wood-Warblers","868"
"","7669","image-multi-choice","52","685296","0.0-1.0-51.0","{""Q0"":""Tennessee Warbler""}","Black-and-white Warbler","Wood-Warblers","864"
"","5763","image-multi-choice","53","692079","0.0-1.0-52.0","{""Q0"":""Chipping Sparrow""}","American Tree Sparrow","New World Sparrows and Allies","894"
"","2740","image-multi-choice","54","695839","0.0-1.0-53.0","{""Q0"":""Black-and-white Warbler""}","Black-and-white Warbler","Wood-Warblers","864"
"","12479","image-multi-choice","55","709335","0.0-1.0-54.0","{""Q0"":""Magnolia Warbler""}","Townsend's Warbler","Wood-Warblers","881"
"","6503","image-multi-choice","56","716855","0.0-1.0-55.0","{""Q0"":""Lark Sparrow""}","Lark Sparrow","New World Sparrows and Allies","899"
"","6208","image-multi-choice","57","724079","0.0-1.0-56.0","{""Q0"":""Ovenbird""}","Ovenbird","Wood-Warblers","860"
"","6424","image-multi-choice","58","731528","0.0-1.0-57.0","{""Q0"":""Lark Sparrow""}","Song Sparrow","New World Sparrows and Allies","902"
"","6493","image-multi-choice","59","739047","0.0-1.0-58.0","{""Q0"":""Chipping Sparrow""}","Chipping Sparrow","New World Sparrows and Allies","769"
"","5070","image-multi-choice","60","770462","0.0-1.0-59.0","{""Q0"":""Black-and-white Warbler""}","Black-and-white Warbler","Wood-Warblers","864"
"","5404","image-multi-choice","61","776890","0.0-1.0-60.0","{""Q0"":""Chipping Sparrow""}","Chipping Sparrow","New World Sparrows and Allies","769"
"","14083","image-multi-choice","62","791992","0.0-1.0-61.0","{""Q0"":""Vesper Sparrow""}","Swamp Sparrow","New World Sparrows and Allies","904"
"","10924","image-multi-choice","63","803936","0.0-1.0-62.0","{""Q0"":""Orange-crowned Warbler""}","Nashville Warbler","Wood-Warblers","868"
"","11149","image-multi-choice","64","816107","0.0-1.0-63.0","{""Q0"":""American Tree Sparrow""}","Lincoln's Sparrow","New World Sparrows and Allies","903"
"","9448","image-multi-choice","65","826571","0.0-1.0-64.0","{""Q0"":""Ovenbird""}","Black-and-white Warbler","Wood-Warblers","864"
"","4974","image-multi-choice","66","832564","0.0-1.0-65.0","{""Q0"":""Fox Sparrow""}","Fox Sparrow","New World Sparrows and Allies","901"
"","14633","image-multi-choice","67","848216","0.0-1.0-66.0","{""Q0"":""Tennessee Warbler""}","Townsend's Warbler","Wood-Warblers","881"
"","6990","image-multi-choice","68","856231","0.0-1.0-67.0","{""Q0"":""Yellow Warbler""}","Yellow Warbler","Wood-Warblers","875"
"","17222","image-multi-choice","69","874472","0.0-1.0-68.0","{""Q0"":""Tennessee Warbler""}","Tennessee Warbler","Wood-Warblers","866"
"","8109","image-multi-choice","70","883599","0.0-1.0-69.0","{""Q0"":""Ovenbird""}","Ovenbird","Wood-Warblers","860"
"","9660","image-multi-choice","71","894280","0.0-1.0-70.0","{""Q0"":""Blackburnian Warbler""}","Townsend's Warbler","Wood-Warblers","881"
"","3130","image-multi-choice","72","898432","0.0-1.0-71.0","{""Q0"":""Black-and-white Warbler""}","Black-and-white Warbler","Wood-Warblers","864"
"","330173","image-multi-choice","73","1229625","0.0-1.0-72.0","{""Q0"":""Song Sparrow""}","Song Sparrow","New World Sparrows and Allies","902"
"","7583","image-multi-choice","74","1238231","0.0-1.0-73.0","{""Q0"":""Northern Waterthrush""}","Northern Waterthrush","Wood-Warblers","862"
"","16419","image-multi-choice","75","1255673","0.0-1.0-74.0","{""Q0"":""American Tree Sparrow""}","Swamp Sparrow","New World Sparrows and Allies","904"
"","3189","image-multi-choice","76","1259880","0.0-1.0-75.0","{""Q0"":""White-crowned Sparrow""}","White-crowned Sparrow","New World Sparrows and Allies","766"
"","12345","image-multi-choice","77","1273247","0.0-1.0-76.0","{""Q0"":""White-crowned Sparrow""}","White-throated Sparrow","New World Sparrows and Allies","764"
"","5230","image-multi-choice","78","1279496","0.0-1.0-77.0","{""Q0"":""Blackburnian Warbler""}","Townsend's Warbler","Wood-Warblers","881"
"","7350","image-multi-choice","79","1287864","0.0-1.0-78.0","{""Q0"":""Chipping Sparrow""}","Vesper Sparrow","New World Sparrows and Allies","898"
"","7533","image-multi-choice","80","1296416","0.0-1.0-79.0","{""Q0"":""White-throated Sparrow""}","White-throated Sparrow","New World Sparrows and Allies","764"
"","10149","image-multi-choice","81","1307579","0.0-1.0-80.0","{""Q0"":""Northern Waterthrush""}","Northern Waterthrush","Wood-Warblers","862"
"","3849","image-multi-choice","82","1312448","0.0-1.0-81.0","{""Q0"":""Yellow Warbler""}","Yellow Warbler","Wood-Warblers","875"
"","4809","image-multi-choice","83","1318276","0.0-1.0-82.0","{""Q0"":""Yellow Warbler""}","Nashville Warbler","Wood-Warblers","868"
"","4600","image-multi-choice","84","1323896","0.0-1.0-83.0","{""Q0"":""Lark Sparrow""}","Lark Sparrow","New World Sparrows and Allies","899"
"","5778","image-multi-choice","85","1330694","0.0-1.0-84.0","{""Q0"":""Yellow Warbler""}","Orange-crowned Warbler","Wood-Warblers","867"
"","7457","image-multi-choice","86","1339168","0.0-1.0-85.0","{""Q0"":""Yellow Warbler""}","Nashville Warbler","Wood-Warblers","868"
"","3219","image-multi-choice","87","1343408","0.0-1.0-86.0","{""Q0"":""Black-and-white Warbler""}","Black-and-white Warbler","Wood-Warblers","864"
"","6402","image-multi-choice","88","1350832","0.0-1.0-87.0","{""Q0"":""Magnolia Warbler""}","Nashville Warbler","Wood-Warblers","868"
"","17268","image-multi-choice","89","1369121","0.0-1.0-88.0","{""Q0"":""Ovenbird""}","Ovenbird","Wood-Warblers","860"
"","8614","image-multi-choice","90","1378751","0.0-1.0-89.0","{""Q0"":""Tennessee Warbler""}","Black-and-white Warbler","Wood-Warblers","864"
"","11669","image-multi-choice","91","1391439","0.0-1.0-90.0","{""Q0"":""American Tree Sparrow""}","Chipping Sparrow","New World Sparrows and Allies","769"
"","9074","image-multi-choice","92","1401519","0.0-1.0-91.0","{""Q0"":""Orange-crowned Warbler""}","Tennessee Warbler","Wood-Warblers","866"
"","7252","image-multi-choice","93","1409791","0.0-1.0-92.0","{""Q0"":""American Tree Sparrow""}","White-throated Sparrow","New World Sparrows and Allies","764"
"","6379","image-multi-choice","94","1417191","0.0-1.0-93.0","{""Q0"":""Song Sparrow""}","Song Sparrow","New World Sparrows and Allies","902"
"","6576","image-multi-choice","95","1424783","0.0-1.0-94.0","{""Q0"":""Townsend's Warbler""}","Blackburnian Warbler","Wood-Warblers","874"
"","12746","image-multi-choice","96","1438535","0.0-1.0-95.0","{""Q0"":""American Tree Sparrow""}","American Tree Sparrow","New World Sparrows and Allies","894"
"","9821","image-multi-choice","97","1449372","0.0-1.0-96.0","{""Q0"":""White-crowned Sparrow""}","White-throated Sparrow","New World Sparrows and Allies","764"
"","8786","image-multi-choice","98","1459175","0.0-1.0-97.0","{""Q0"":""Nashville Warbler""}","Orange-crowned Warbler","Wood-Warblers","867"
"","2749","image-multi-choice","99","1462943","0.0-1.0-98.0","{""Q0"":""Yellow Warbler""}","Yellow Warbler","Wood-Warblers","875"
"","4581","image-multi-choice","100","1468540","0.0-1.0-99.0","{""Q0"":""Fox Sparrow""}","Fox Sparrow","New World Sparrows and Allies","901"
"","11630","image-multi-choice","101","1481192","0.0-1.0-100.0","{""Q0"":""American Tree Sparrow""}","Chipping Sparrow","New World Sparrows and Allies","769"
"","4528","image-multi-choice","102","1486739","0.0-1.0-101.0","{""Q0"":""Northern Waterthrush""}","Northern Waterthrush","Wood-Warblers","862"
"","9787","image-multi-choice","103","1497536","0.0-1.0-102.0","{""Q0"":""Lincoln's Sparrow""}","Swamp Sparrow","New World Sparrows and Allies","904"
"","4566","image-multi-choice","104","1503119","0.0-1.0-103.0","{""Q0"":""Northern Waterthrush""}","Northern Waterthrush","Wood-Warblers","862"
"","6917","image-multi-choice","105","1511056","0.0-1.0-104.0","{""Q0"":""Yellow Warbler""}","Yellow Warbler","Wood-Warblers","875"
"","4841","image-multi-choice","106","1516903","0.0-1.0-105.0","{""Q0"":""Blackburnian Warbler""}","Magnolia Warbler","Wood-Warblers","758"
"","6770","image-multi-choice","107","1524687","0.0-1.0-106.0","{""Q0"":""Nashville Warbler""}","Townsend's Warbler","Wood-Warblers","881"
"","4891","image-multi-choice","108","1530592","0.0-1.0-107.0","{""Q0"":""White-throated Sparrow""}","Swamp Sparrow","New World Sparrows and Allies","904"
"","3190","image-multi-choice","109","1534799","0.0-1.0-108.0","{""Q0"":""Fox Sparrow""}","Fox Sparrow","New World Sparrows and Allies","901"
"","1850","image-multi-choice","110","1537659","0.0-1.0-109.0","{""Q0"":""Yellow Warbler""}","Yellow Warbler","Wood-Warblers","875"
"","9188","image-multi-choice","111","1547866","0.0-1.0-110.0","{""Q0"":""Swamp Sparrow""}","Lincoln's Sparrow","New World Sparrows and Allies","903"
"","9976","image-multi-choice","112","1558864","0.0-1.0-111.0","{""Q0"":""Tennessee Warbler""}","Townsend's Warbler","Wood-Warblers","881"
"","4374","image-multi-choice","113","1564256","0.0-1.0-112.0","{""Q0"":""White-crowned Sparrow""}","White-crowned Sparrow","New World Sparrows and Allies","766"
"","10292","image-multi-choice","114","1575567","0.0-1.0-113.0","{""Q0"":""Blackburnian Warbler""}","Blackburnian Warbler","Wood-Warblers","874"
"","5711","image-multi-choice","115","1582295","0.0-1.0-114.0","{""Q0"":""Orange-crowned Warbler""}","Nashville Warbler","Wood-Warblers","868"
"","3078","image-multi-choice","116","1586392","0.0-1.0-115.0","{""Q0"":""Orange-crowned Warbler""}","Tennessee Warbler","Wood-Warblers","866"
"","6965","image-multi-choice","117","1594378","0.0-1.0-116.0","{""Q0"":""Lincoln's Sparrow""}","Vesper Sparrow","New World Sparrows and Allies","898"
"","7744","image-multi-choice","118","1603144","0.0-1.0-117.0","{""Q0"":""White-crowned Sparrow""}","Swamp Sparrow","New World Sparrows and Allies","904"
"","6428","image-multi-choice","119","1610591","0.0-1.0-118.0","{""Q0"":""White-crowned Sparrow""}","White-crowned Sparrow","New World Sparrows and Allies","766"
"","6270","image-multi-choice","120","1626420","0.0-1.0-119.0","{""Q0"":""Townsend's Warbler""}","Blackburnian Warbler","Wood-Warblers","874"
"","7365","image-multi-choice","121","1634807","0.0-1.0-120.0","{""Q0"":""Fox Sparrow""}","Fox Sparrow","New World Sparrows and Allies","901"
"","4866","image-multi-choice","122","1640695","0.0-1.0-121.0","{""Q0"":""Lark Sparrow""}","Vesper Sparrow","New World Sparrows and Allies","898"
"","2219","image-multi-choice","123","1643935","0.0-1.0-122.0","{""Q0"":""Yellow Warbler""}","Yellow Warbler","Wood-Warblers","875"
"","11383","image-multi-choice","124","1656335","0.0-1.0-123.0","{""Q0"":""Song Sparrow""}","Song Sparrow","New World Sparrows and Allies","902"
"","4238","image-multi-choice","125","1661592","0.0-1.0-124.0","{""Q0"":""Blackburnian Warbler""}","Townsend's Warbler","Wood-Warblers","881"
"","3137","image-multi-choice","126","1665747","0.0-1.0-125.0","{""Q0"":""White-crowned Sparrow""}","White-crowned Sparrow","New World Sparrows and Allies","766"
"","7652","image-multi-choice","127","1674406","0.0-1.0-126.0","{""Q0"":""Song Sparrow""}","Song Sparrow","New World Sparrows and Allies","902"
"","3241","image-multi-choice","128","1678664","0.0-1.0-127.0","{""Q0"":""Ovenbird""}","Ovenbird","Wood-Warblers","860"
"","2785","image-multi-choice","129","1682472","0.0-1.0-128.0","{""Q0"":""Blackburnian Warbler""}","Magnolia Warbler","Wood-Warblers","758"
"","13116","image-multi-choice","130","1696608","0.0-1.0-129.0","{""Q0"":""Nashville Warbler""}","Swamp Sparrow","New World Sparrows and Allies","904"
"","3675","image-multi-choice","131","1701302","0.0-1.0-130.0","{""Q0"":""Lark Sparrow""}","Lark Sparrow","New World Sparrows and Allies","899"
"","6810","image-multi-choice","132","1709120","0.0-1.0-131.0","{""Q0"":""Blackburnian Warbler""}","Magnolia Warbler","Wood-Warblers","758"
"","6086","image-multi-choice","133","1716223","0.0-1.0-132.0","{""Q0"":""White-crowned Sparrow""}","White-throated Sparrow","New World Sparrows and Allies","764"
"","13746","image-multi-choice","134","1730992","0.0-1.0-133.0","{""Q0"":""Magnolia Warbler""}","Magnolia Warbler","Wood-Warblers","758"
"","3528","image-multi-choice","135","1735535","0.0-1.0-134.0","{""Q0"":""Yellow Warbler""}","Yellow Warbler","Wood-Warblers","875"
"","5763","image-multi-choice","136","1742319","0.0-1.0-135.0","{""Q0"":""Orange-crowned Warbler""}","Tennessee Warbler","Wood-Warblers","866"
"","5036","image-multi-choice","137","1748373","0.0-1.0-136.0","{""Q0"":""Ovenbird""}","Ovenbird","Wood-Warblers","860"
"","8644","image-multi-choice","138","1758040","0.0-1.0-137.0","{""Q0"":""Northern Waterthrush""}","Black-and-white Warbler","Wood-Warblers","864"
"","6030","image-multi-choice","139","1765087","0.0-1.0-138.0","{""Q0"":""Chipping Sparrow""}","Chipping Sparrow","New World Sparrows and Allies","769"
"","4438","image-multi-choice","140","1770544","0.0-1.0-139.0","{""Q0"":""Northern Waterthrush""}","Northern Waterthrush","Wood-Warblers","862"
"","5192","image-multi-choice","141","1776759","0.0-1.0-140.0","{""Q0"":""Lincoln's Sparrow""}","Vesper Sparrow","New World Sparrows and Allies","898"
"","7125","image-multi-choice","142","1784903","0.0-1.0-141.0","{""Q0"":""White-throated Sparrow""}","White-throated Sparrow","New World Sparrows and Allies","764"
"","9241","image-multi-choice","143","1795151","0.0-1.0-142.0","{""Q0"":""Blackburnian Warbler""}","Magnolia Warbler","Wood-Warblers","758"
"","3148","image-multi-choice","144","1799318","0.0-1.0-143.0","{""Q0"":""Black-and-white Warbler""}","Blackburnian Warbler","Wood-Warblers","874"
"","3261","image-multi-choice","145","1803599","0.0-1.0-144.0","{""Q0"":""Lark Sparrow""}","Lark Sparrow","New World Sparrows and Allies","899"
"","21836","image-multi-choice","146","1826455","0.0-1.0-145.0","{""Q0"":""Northern Waterthrush""}","Song Sparrow","New World Sparrows and Allies","902"
"","6385","image-multi-choice","147","1833848","0.0-1.0-146.0","{""Q0"":""White-throated Sparrow""}","White-crowned Sparrow","New World Sparrows and Allies","766"
"","80297","image-multi-choice","148","1915164","0.0-1.0-147.0","{""Q0"":""Nashville Warbler""}","Chipping Sparrow","New World Sparrows and Allies","769"
"","6330","image-multi-choice","149","1922499","0.0-1.0-148.0","{""Q0"":""Lincoln's Sparrow""}","Swamp Sparrow","New World Sparrows and Allies","904"
"","3930","image-multi-choice","150","1927446","0.0-1.0-149.0","{""Q0"":""Fox Sparrow""}","Fox Sparrow","New World Sparrows and Allies","901"
"","3484","image-multi-choice","151","1931944","0.0-1.0-150.0","{""Q0"":""Yellow Warbler""}","Yellow Warbler","Wood-Warblers","875"
"","3781","image-multi-choice","152","1936744","0.0-1.0-151.0","{""Q0"":""White-crowned Sparrow""}","White-crowned Sparrow","New World Sparrows and Allies","766"
"","18241","image-multi-choice","153","1956005","0.0-1.0-152.0","{""Q0"":""Townsend's Warbler""}","Song Sparrow","New World Sparrows and Allies","902"
"","4991","image-multi-choice","154","1962005","0.0-1.0-153.0","{""Q0"":""Northern Waterthrush""}","Northern Waterthrush","Wood-Warblers","862"
"","3217","image-multi-choice","155","1966227","0.0-1.0-154.0","{""Q0"":""White-crowned Sparrow""}","White-crowned Sparrow","New World Sparrows and Allies","766"
"","6828","image-multi-choice","156","1974063","0.0-1.0-155.0","{""Q0"":""Yellow Warbler""}","Yellow Warbler","Wood-Warblers","875"
"","6934","image-multi-choice","157","1982017","0.0-1.0-156.0","{""Q0"":""White-throated Sparrow""}","White-throated Sparrow","New World Sparrows and Allies","764"
"","4629","image-multi-choice","158","1987664","0.0-1.0-157.0","{""Q0"":""White-crowned Sparrow""}","White-crowned Sparrow","New World Sparrows and Allies","766"
"","3614","image-multi-choice","159","1992298","0.0-1.0-158.0","{""Q0"":""Blackburnian Warbler""}","Townsend's Warbler","Wood-Warblers","881"
"","10533","image-multi-choice","160","2003848","0.0-1.0-159.0","{""Q0"":""Nashville Warbler""}","Tennessee Warbler","Wood-Warblers","866"
"","7532","image-multi-choice","161","2012395","0.0-1.0-160.0","{""Q0"":""White-crowned Sparrow""}","White-throated Sparrow","New World Sparrows and Allies","764"
"","6452","image-multi-choice","162","2019866","0.0-1.0-161.0","{""Q0"":""Fox Sparrow""}","Fox Sparrow","New World Sparrows and Allies","901"
"","11206","image-multi-choice","163","2032091","0.0-1.0-162.0","{""Q0"":""Song Sparrow""}","Song Sparrow","New World Sparrows and Allies","902"
"","5474","image-multi-choice","164","2038576","0.0-1.0-163.0","{""Q0"":""White-crowned Sparrow""}","White-crowned Sparrow","New World Sparrows and Allies","766"
"","6321","image-multi-choice","165","2045911","0.0-1.0-164.0","{""Q0"":""Lincoln's Sparrow""}","Song Sparrow","New World Sparrows and Allies","902"
"","4810","image-multi-choice","166","2051728","0.0-1.0-165.0","{""Q0"":""Lark Sparrow""}","American Tree Sparrow","New World Sparrows and Allies","894"
"","4657","image-multi-choice","167","2057394","0.0-1.0-166.0","{""Q0"":""Yellow Warbler""}","Orange-crowned Warbler","Wood-Warblers","867"
"","10429","image-multi-choice","168","2068841","0.0-1.0-167.0","{""Q0"":""Lark Sparrow""}","Lincoln's Sparrow","New World Sparrows and Allies","903"
"","6415","image-multi-choice","169","2076275","0.0-1.0-168.0","{""Q0"":""Townsend's Warbler""}","Blackburnian Warbler","Wood-Warblers","874"
"","5297","image-multi-choice","170","2082593","0.0-1.0-169.0","{""Q0"":""White-crowned Sparrow""}","White-throated Sparrow","New World Sparrows and Allies","764"
"","3607","image-multi-choice","171","2087214","0.0-1.0-170.0","{""Q0"":""Fox Sparrow""}","Fox Sparrow","New World Sparrows and Allies","901"
"","7578","image-multi-choice","172","2095801","0.0-1.0-171.0","{""Q0"":""White-crowned Sparrow""}","Chipping Sparrow","New World Sparrows and Allies","769"
"","7100","image-multi-choice","173","2103918","0.0-1.0-172.0","{""Q0"":""Chipping Sparrow""}","Swamp Sparrow","New World Sparrows and Allies","904"
"","6903","image-multi-choice","174","2111829","0.0-1.0-173.0","{""Q0"":""Chipping Sparrow""}","Lincoln's Sparrow","New World Sparrows and Allies","903"
"","8763","image-multi-choice","175","2121608","0.0-1.0-174.0","{""Q0"":""Lincoln's Sparrow""}","Swamp Sparrow","New World Sparrows and Allies","904"
"","3741","image-multi-choice","176","2126373","0.0-1.0-175.0","{""Q0"":""Blackburnian Warbler""}","Townsend's Warbler","Wood-Warblers","881"
"","4012","image-multi-choice","177","2131392","0.0-1.0-176.0","{""Q0"":""American Tree Sparrow""}","American Tree Sparrow","New World Sparrows and Allies","894"
"","10647","image-multi-choice","178","2143055","0.0-1.0-177.0","{""Q0"":""Ovenbird""}","Fox Sparrow","New World Sparrows and Allies","901"
"","6689","image-multi-choice","179","2150766","0.0-1.0-178.0","{""Q0"":""Lark Sparrow""}","Lincoln's Sparrow","New World Sparrows and Allies","903"
"","3496","image-multi-choice","180","5184697","0.0-1.0-179.0","{""Q0"":""Blackburnian Warbler""}","Magnolia Warbler","Wood-Warblers","758"
"","7442","image-multi-choice","181","5193155","0.0-1.0-180.0","{""Q0"":""Orange-crowned Warbler""}","Orange-crowned Warbler","Wood-Warblers","867"
"","7277","image-multi-choice","182","5201443","0.0-1.0-181.0","{""Q0"":""Orange-crowned Warbler""}","Tennessee Warbler","Wood-Warblers","866"
"","5709","image-multi-choice","183","5208161","0.0-1.0-182.0","{""Q0"":""Lark Sparrow""}","Vesper Sparrow","New World Sparrows and Allies","898"
"","4989","image-multi-choice","184","5214166","0.0-1.0-183.0","{""Q0"":""Townsend's Warbler""}","Blackburnian Warbler","Wood-Warblers","874"
"","7404","image-multi-choice","185","5222582","0.0-1.0-184.0","{""Q0"":""Lincoln's Sparrow""}","Lincoln's Sparrow","New World Sparrows and Allies","903"
"","6722","image-multi-choice","186","5230316","0.0-1.0-185.0","{""Q0"":""Blackburnian Warbler""}","Townsend's Warbler","Wood-Warblers","881"
"","4773","image-multi-choice","187","5236114","0.0-1.0-186.0","{""Q0"":""Ovenbird""}","Ovenbird","Wood-Warblers","860"
"","2939","image-multi-choice","188","5240068","0.0-1.0-187.0","{""Q0"":""Yellow Warbler""}","Orange-crowned Warbler","Wood-Warblers","867"
"","3555","image-multi-choice","189","5244644","0.0-1.0-188.0","{""Q0"":""American Tree Sparrow""}","Chipping Sparrow","New World Sparrows and Allies","769"
"","5517","image-multi-choice","190","5251180","0.0-1.0-189.0","{""Q0"":""American Tree Sparrow""}","American Tree Sparrow","New World Sparrows and Allies","894"
"","7044","image-multi-choice","191","5259234","0.0-1.0-190.0","{""Q0"":""Song Sparrow""}","Vesper Sparrow","New World Sparrows and Allies","898"
"","7903","image-multi-choice","192","5268153","0.0-1.0-191.0","{""Q0"":""Song Sparrow""}","Lincoln's Sparrow","New World Sparrows and Allies","903"
"","10730","image-multi-choice","193","5279900","0.0-1.0-192.0","{""Q0"":""Nashville Warbler""}","Tennessee Warbler","Wood-Warblers","866"
"","4389","image-multi-choice","194","5285299","0.0-1.0-193.0","{""Q0"":""American Tree Sparrow""}","American Tree Sparrow","New World Sparrows and Allies","894"
"","2579","image-multi-choice","195","5288890","0.0-1.0-194.0","{""Q0"":""Lark Sparrow""}","Lark Sparrow","New World Sparrows and Allies","899"
"","7524","image-multi-choice","196","5297435","0.0-1.0-195.0","{""Q0"":""Orange-crowned Warbler""}","Tennessee Warbler","Wood-Warblers","866"
"","3529","image-multi-choice","197","5301970","0.0-1.0-196.0","{""Q0"":""Northern Waterthrush""}","Northern Waterthrush","Wood-Warblers","862"
"","6629","image-multi-choice","198","5309622","0.0-1.0-197.0","{""Q0"":""White-throated Sparrow""}","White-throated Sparrow","New World Sparrows and Allies","764"
"","2384","image-multi-choice","199","5313020","0.0-1.0-198.0","{""Q0"":""Yellow Warbler""}","Yellow Warbler","Wood-Warblers","875"
"","6495","image-multi-choice","200","5320535","0.0-1.0-199.0","{""Q0"":""White-throated Sparrow""}","White-crowned Sparrow","New World Sparrows and Allies","766"
"","6560","image-multi-choice","201","5328114","0.0-1.0-200.0","{""Q0"":""Chipping Sparrow""}","American Tree Sparrow","New World Sparrows and Allies","894"
"","5121","image-multi-choice","202","5334254","0.0-1.0-201.0","{""Q0"":""Ovenbird""}","Ovenbird","Wood-Warblers","860"
"","5664","image-multi-choice","203","5340932","0.0-1.0-202.0","{""Q0"":""Blackburnian Warbler""}","Magnolia Warbler","Wood-Warblers","758"
"","6714","image-multi-choice","204","5348661","0.0-1.0-203.0","{""Q0"":""Black-and-white Warbler""}","Black-and-white Warbler","Wood-Warblers","864"
"","3292","image-multi-choice","205","5352972","0.0-1.0-204.0","{""Q0"":""Northern Waterthrush""}","Northern Waterthrush","Wood-Warblers","862"
"","5594","image-multi-choice","206","5359581","0.0-1.0-205.0","{""Q0"":""American Tree Sparrow""}","American Tree Sparrow","New World Sparrows and Allies","894"
"","3431","image-multi-choice","207","5364027","0.0-1.0-206.0","{""Q0"":""Blackburnian Warbler""}","Magnolia Warbler","Wood-Warblers","758"
"","8532","image-multi-choice","208","5373570","0.0-1.0-207.0","{""Q0"":""Tennessee Warbler""}","Blackburnian Warbler","Wood-Warblers","874"
"","5419","image-multi-choice","209","5380002","0.0-1.0-208.0","{""Q0"":""Lincoln's Sparrow""}","Swamp Sparrow","New World Sparrows and Allies","904"
"","4502","image-multi-choice","210","5385522","0.0-1.0-209.0","{""Q0"":""American Tree Sparrow""}","American Tree Sparrow","New World Sparrows and Allies","894"
"","4364","image-multi-choice","211","5390894","0.0-1.0-210.0","{""Q0"":""Ovenbird""}","Ovenbird","Wood-Warblers","860"
"","10440","image-multi-choice","212","5402355","0.0-1.0-211.0","{""Q0"":""Chipping Sparrow""}","Swamp Sparrow","New World Sparrows and Allies","904"
"","5208","image-multi-choice","213","5408579","0.0-1.0-212.0","{""Q0"":""Song Sparrow""}","Song Sparrow","New World Sparrows and Allies","902"
"","5874","image-multi-choice","214","5415466","0.0-1.0-213.0","{""Q0"":""Tennessee Warbler""}","Blackburnian Warbler","Wood-Warblers","874"
"","8583","image-multi-choice","215","5425060","0.0-1.0-214.0","{""Q0"":""Lincoln's Sparrow""}","Vesper Sparrow","New World Sparrows and Allies","898"
"","4210","image-multi-choice","216","5430285","0.0-1.0-215.0","{""Q0"":""Black-and-white Warbler""}","Blackburnian Warbler","Wood-Warblers","874"
"","8528","image-multi-choice","217","5439835","0.0-1.0-216.0","{""Q0"":""Swamp Sparrow""}","Song Sparrow","New World Sparrows and Allies","902"
"","8387","image-multi-choice","218","5449243","0.0-1.0-217.0","{""Q0"":""Orange-crowned Warbler""}","Tennessee Warbler","Wood-Warblers","866"
"","3727","image-multi-choice","219","5453987","0.0-1.0-218.0","{""Q0"":""Black-and-white Warbler""}","Black-and-white Warbler","Wood-Warblers","864"
"","4126","image-multi-choice","220","5459130","0.0-1.0-219.0","{""Q0"":""Ovenbird""}","Ovenbird","Wood-Warblers","860"
"","6434","image-multi-choice","221","5466579","0.0-1.0-220.0","{""Q0"":""White-crowned Sparrow""}","White-throated Sparrow","New World Sparrows and Allies","764"
"","6994","image-multi-choice","222","5474589","0.0-1.0-221.0","{""Q0"":""Lincoln's Sparrow""}","Vesper Sparrow","New World Sparrows and Allies","898"
"","10544","image-multi-choice","223","5486149","0.0-1.0-222.0","{""Q0"":""Tennessee Warbler""}","American Tree Sparrow","New World Sparrows and Allies","894"
"","2223","image-multi-choice","224","5489388","0.0-1.0-223.0","{""Q0"":""Yellow Warbler""}","Yellow Warbler","Wood-Warblers","875"
"","3208","image-multi-choice","225","5493611","0.0-1.0-224.0","{""Q0"":""Northern Waterthrush""}","Northern Waterthrush","Wood-Warblers","862"
"","4989","image-multi-choice","226","5499611","0.0-1.0-225.0","{""Q0"":""Black-and-white Warbler""}","Blackburnian Warbler","Wood-Warblers","874"
"","5531","image-multi-choice","227","5506161","0.0-1.0-226.0","{""Q0"":""White-throated Sparrow""}","White-throated Sparrow","New World Sparrows and Allies","764"
"","5692","image-multi-choice","228","5512859","0.0-1.0-227.0","{""Q0"":""Song Sparrow""}","Song Sparrow","New World Sparrows and Allies","902"
"","2889","image-multi-choice","229","5516773","0.0-1.0-228.0","{""Q0"":""Ovenbird""}","Ovenbird","Wood-Warblers","860"
"","3566","image-multi-choice","230","5521357","0.0-1.0-229.0","{""Q0"":""Black-and-white Warbler""}","Townsend's Warbler","Wood-Warblers","881"
"","3620","image-multi-choice","231","5525995","0.0-1.0-230.0","{""Q0"":""Yellow Warbler""}","Nashville Warbler","Wood-Warblers","868"
"","6722","image-multi-choice","232","5533739","0.0-1.0-231.0","{""Q0"":""Fox Sparrow""}","Fox Sparrow","New World Sparrows and Allies","901"
"","4539","image-multi-choice","233","5539293","0.0-1.0-232.0","{""Q0"":""Ovenbird""}","Ovenbird","Wood-Warblers","860"
"","10441","image-multi-choice","234","5550751","0.0-1.0-233.0","{""Q0"":""Tennessee Warbler""}","Magnolia Warbler","Wood-Warblers","758"
"","4750","image-multi-choice","235","5556514","0.0-1.0-234.0","{""Q0"":""American Tree Sparrow""}","American Tree Sparrow","New World Sparrows and Allies","894"
"","6309","image-multi-choice","236","5563844","0.0-1.0-235.0","{""Q0"":""Black-and-white Warbler""}","Blackburnian Warbler","Wood-Warblers","874"
"","8153","image-multi-choice","237","5573014","0.0-1.0-236.0","{""Q0"":""Chipping Sparrow""}","Chipping Sparrow","New World Sparrows and Allies","769"
"","2890","image-multi-choice","238","5576919","0.0-1.0-237.0","{""Q0"":""Fox Sparrow""}","Fox Sparrow","New World Sparrows and Allies","901"
"","3557","image-multi-choice","239","5581491","0.0-1.0-238.0","{""Q0"":""Lark Sparrow""}","Vesper Sparrow","New World Sparrows and Allies","898"
"","3809","image-multi-choice","240","5590746","0.0-1.0-239.0","{""Q0"":""Northern Waterthrush""}","Northern Waterthrush","Wood-Warblers","862"
"","3159","image-multi-choice","241","5594924","0.0-1.0-240.0","{""Q0"":""Lark Sparrow""}","Lark Sparrow","New World Sparrows and Allies","899"
"","4190","image-multi-choice","242","5600132","0.0-1.0-241.0","{""Q0"":""Nashville Warbler""}","Nashville Warbler","Wood-Warblers","868"
"","5395","image-multi-choice","243","5606539","0.0-1.0-242.0","{""Q0"":""Ovenbird""}","Ovenbird","Wood-Warblers","860"
"","4385","image-multi-choice","244","5611940","0.0-1.0-243.0","{""Q0"":""Northern Waterthrush""}","Northern Waterthrush","Wood-Warblers","862"
"","4880","image-multi-choice","245","5617834","0.0-1.0-244.0","{""Q0"":""Nashville Warbler""}","Orange-crowned Warbler","Wood-Warblers","867"
"","7979","image-multi-choice","246","5626817","0.0-1.0-245.0","{""Q0"":""American Tree Sparrow""}","Chipping Sparrow","New World Sparrows and Allies","769"
"","6097","image-multi-choice","247","5633922","0.0-1.0-246.0","{""Q0"":""Nashville Warbler""}","Tennessee Warbler","Wood-Warblers","866"
"","6207","image-multi-choice","248","5641146","0.0-1.0-247.0","{""Q0"":""Blackburnian Warbler""}","Yellow Warbler","Wood-Warblers","875"
"","4838","image-multi-choice","249","5647003","0.0-1.0-248.0","{""Q0"":""Song Sparrow""}","Lincoln's Sparrow","New World Sparrows and Allies","903"
"","8627","image-multi-choice","250","5656645","0.0-1.0-249.0","{""Q0"":""American Tree Sparrow""}","Vesper Sparrow","New World Sparrows and Allies","898"
"","3898","image-multi-choice","251","5661555","0.0-1.0-250.0","{""Q0"":""Black-and-white Warbler""}","Black-and-white Warbler","Wood-Warblers","864"
"","3861","image-multi-choice","252","5666428","0.0-1.0-251.0","{""Q0"":""Lark Sparrow""}","Song Sparrow","New World Sparrows and Allies","902"
"","7206","image-multi-choice","253","5674655","0.0-1.0-252.0","{""Q0"":""American Tree Sparrow""}","Chipping Sparrow","New World Sparrows and Allies","769"
"","3321","image-multi-choice","254","5678998","0.0-1.0-253.0","{""Q0"":""Black-and-white Warbler""}","Magnolia Warbler","Wood-Warblers","758"
"","5502","image-multi-choice","255","5685515","0.0-1.0-254.0","{""Q0"":""Lincoln's Sparrow""}","Lincoln's Sparrow","New World Sparrows and Allies","903"
"","3875","image-multi-choice","256","5690395","0.0-1.0-255.0","{""Q0"":""White-throated Sparrow""}","White-throated Sparrow","New World Sparrows and Allies","764"
"","3453","image-multi-choice","257","5694866","0.0-1.0-256.0","{""Q0"":""Fox Sparrow""}","Fox Sparrow","New World Sparrows and Allies","901"
"","6251","image-multi-choice","258","5702130","0.0-1.0-257.0","{""Q0"":""Blackburnian Warbler""}","Black-and-white Warbler","Wood-Warblers","864"
"","21530","image-multi-choice","259","5724677","0.0-1.0-258.0","{""Q0"":""Ovenbird""}","Chipping Sparrow","New World Sparrows and Allies","769"
"","4328","image-multi-choice","260","5730021","0.0-1.0-259.0","{""Q0"":""Tennessee Warbler""}","Orange-crowned Warbler","Wood-Warblers","867"
"","4591","image-multi-choice","261","5735629","0.0-1.0-260.0","{""Q0"":""Lark Sparrow""}","Lark Sparrow","New World Sparrows and Allies","899"
"","5381","image-multi-choice","262","5742028","0.0-1.0-261.0","{""Q0"":""Lincoln's Sparrow""}","Lincoln's Sparrow","New World Sparrows and Allies","903"
"","7261","image-multi-choice","263","5750300","0.0-1.0-262.0","{""Q0"":""Northern Waterthrush""}","Northern Waterthrush","Wood-Warblers","862"
"","9681","image-multi-choice","264","5761005","0.0-1.0-263.0","{""Q0"":""Nashville Warbler""}","Nashville Warbler","Wood-Warblers","868"
"","2494","image-multi-choice","265","5764517","0.0-1.0-264.0","{""Q0"":""Lark Sparrow""}","Lark Sparrow","New World Sparrows and Allies","899"
"","6112","image-multi-choice","266","5771643","0.0-1.0-265.0","{""Q0"":""Townsend's Warbler""}","Orange-crowned Warbler","Wood-Warblers","867"
"","5726","image-multi-choice","267","5778386","0.0-1.0-266.0","{""Q0"":""Blackburnian Warbler""}","Magnolia Warbler","Wood-Warblers","758"
"","7758","image-multi-choice","268","5787155","0.0-1.0-267.0","{""Q0"":""Tennessee Warbler""}","Orange-crowned Warbler","Wood-Warblers","867"
"","2002","image-multi-choice","269","5790172","0.0-1.0-268.0","{""Q0"":""Yellow Warbler""}","Yellow Warbler","Wood-Warblers","875"
"","6877","image-multi-choice","270","5798065","0.0-1.0-269.0","{""Q0"":""Yellow Warbler""}","Orange-crowned Warbler","Wood-Warblers","867"
"","4451","image-multi-choice","271","5803532","0.0-1.0-270.0","{""Q0"":""Lincoln's Sparrow""}","Lincoln's Sparrow","New World Sparrows and Allies","903"
"","2561","image-multi-choice","272","5807113","0.0-1.0-271.0","{""Q0"":""Lark Sparrow""}","Lark Sparrow","New World Sparrows and Allies","899"
"","5732","image-multi-choice","273","5813867","0.0-1.0-272.0","{""Q0"":""Lincoln's Sparrow""}","Lincoln's Sparrow","New World Sparrows and Allies","903"
"","7032","image-multi-choice","274","5821905","0.0-1.0-273.0","{""Q0"":""Nashville Warbler""}","Nashville Warbler","Wood-Warblers","868"
"","3592","image-multi-choice","275","5826508","0.0-1.0-274.0","{""Q0"":""Lark Sparrow""}","Lark Sparrow","New World Sparrows and Allies","899"
"","5016","image-multi-choice","276","5832538","0.0-1.0-275.0","{""Q0"":""American Tree Sparrow""}","Chipping Sparrow","New World Sparrows and Allies","769"
"","3862","image-multi-choice","277","5837419","0.0-1.0-276.0","{""Q0"":""White-crowned Sparrow""}","White-throated Sparrow","New World Sparrows and Allies","764"
"","9912","image-multi-choice","278","5848348","0.0-1.0-277.0","{""Q0"":""Song Sparrow""}","Song Sparrow","New World Sparrows and Allies","902"
"","4452","image-multi-choice","279","5853819","0.0-1.0-278.0","{""Q0"":""Ovenbird""}","Ovenbird","Wood-Warblers","860"
"","2828","image-multi-choice","280","5857658","0.0-1.0-279.0","{""Q0"":""Lark Sparrow""}","Lark Sparrow","New World Sparrows and Allies","899"
"","12926","image-multi-choice","281","5871595","0.0-1.0-280.0","{""Q0"":""Chipping Sparrow""}","Chipping Sparrow","New World Sparrows and Allies","769"
"","49941","image-multi-choice","282","5922548","0.0-1.0-281.0","{""Q0"":""Orange-crowned Warbler""}","Lark Sparrow","New World Sparrows and Allies","899"
"","4005","image-multi-choice","283","5927570","0.0-1.0-282.0","{""Q0"":""Song Sparrow""}","Song Sparrow","New World Sparrows and Allies","902"
"","4053","image-multi-choice","284","5932635","0.0-1.0-283.0","{""Q0"":""White-crowned Sparrow""}","White-throated Sparrow","New World Sparrows and Allies","764"
"","2547","image-multi-choice","285","5936196","0.0-1.0-284.0","{""Q0"":""Black-and-white Warbler""}","Magnolia Warbler","Wood-Warblers","758"
"","6468","image-multi-choice","286","5943675","0.0-1.0-285.0","{""Q0"":""Nashville Warbler""}","Orange-crowned Warbler","Wood-Warblers","867"
"","6455","image-multi-choice","287","5951139","0.0-1.0-286.0","{""Q0"":""Lincoln's Sparrow""}","Lincoln's Sparrow","New World Sparrows and Allies","903"
"","2651","image-multi-choice","288","5954803","0.0-1.0-287.0","{""Q0"":""Lark Sparrow""}","Lark Sparrow","New World Sparrows and Allies","899"
"","4941","image-multi-choice","289","5960755","0.0-1.0-288.0","{""Q0"":""Tennessee Warbler""}","Townsend's Warbler","Wood-Warblers","881"
"","3356","image-multi-choice","290","5965129","0.0-1.0-289.0","{""Q0"":""Black-and-white Warbler""}","Black-and-white Warbler","Wood-Warblers","864"
"","2730","image-multi-choice","291","5968876","0.0-1.0-290.0","{""Q0"":""Orange-crowned Warbler""}","Tennessee Warbler","Wood-Warblers","866"
"","7500","image-multi-choice","292","5977396","0.0-1.0-291.0","{""Q0"":""Chipping Sparrow""}","American Tree Sparrow","New World Sparrows and Allies","894"
"","6107","image-multi-choice","293","5984515","0.0-1.0-292.0","{""Q0"":""American Tree Sparrow""}","Chipping Sparrow","New World Sparrows and Allies","769"
"","2648","image-multi-choice","294","5988170","0.0-1.0-293.0","{""Q0"":""Lark Sparrow""}","Lark Sparrow","New World Sparrows and Allies","899"
"","6097","image-multi-choice","295","5995283","0.0-1.0-294.0","{""Q0"":""Blackburnian Warbler""}","Magnolia Warbler","Wood-Warblers","758"
"","2131","image-multi-choice","296","5998429","0.0-1.0-295.0","{""Q0"":""Yellow Warbler""}","Yellow Warbler","Wood-Warblers","875"
"","3985","image-multi-choice","297","6003429","0.0-1.0-296.0","{""Q0"":""White-crowned Sparrow""}","White-crowned Sparrow","New World Sparrows and Allies","766"
"","3787","image-multi-choice","298","6008232","0.0-1.0-297.0","{""Q0"":""Fox Sparrow""}","Swamp Sparrow","New World Sparrows and Allies","904"
"","6358","image-multi-choice","299","6015604","0.0-1.0-298.0","{""Q0"":""Nashville Warbler""}","Orange-crowned Warbler","Wood-Warblers","867"
"","8521","image-multi-choice","300","6028779","0.0-1.0-299.0","{""Q0"":""Vesper Sparrow""}","Vesper Sparrow","New World Sparrows and Allies","898"
"[{""page_index"":0,""viewing_time"":2366}]","2366","instructions","301","6032146","0.0-2.0","","","",""
