"view_history","rt","trial_type","trial_index","time_elapsed","internal_node_id","responses","bird","family","class"
"[{""page_index"":0,""viewing_time"":15279}]","15280","instructions","0","15282","0.0-0.0","","","",""
"","5768","image-multi-choice","1","22074","0.0-1.0-0.0","{""Q0"":""Chipping Sparrow""}","American Tree Sparrow","New World Sparrows and Allies","894"
"","8147","image-multi-choice","2","31237","0.0-1.0-1.0","{""Q0"":""Nashville Warbler""}","Tennessee Warbler","Wood-Warblers","866"
"","4701","image-multi-choice","3","36951","0.0-1.0-2.0","{""Q0"":""White-crowned Sparrow""}","White-crowned Sparrow","New World Sparrows and Allies","766"
"","4744","image-multi-choice","4","42707","0.0-1.0-3.0","{""Q0"":""American Tree Sparrow""}","American Tree Sparrow","New World Sparrows and Allies","894"
"","4223","image-multi-choice","5","47952","0.0-1.0-4.0","{""Q0"":""White-throated Sparrow""}","White-crowned Sparrow","New World Sparrows and Allies","766"
"","9227","image-multi-choice","6","58192","0.0-1.0-5.0","{""Q0"":""Blackburnian Warbler""}","Townsend's Warbler","Wood-Warblers","881"
"","5083","image-multi-choice","7","64288","0.0-1.0-6.0","{""Q0"":""Fox Sparrow""}","Vesper Sparrow","New World Sparrows and Allies","898"
"","7103","image-multi-choice","8","72404","0.0-1.0-7.0","{""Q0"":""Tennessee Warbler""}","Nashville Warbler","Wood-Warblers","868"
"","5306","image-multi-choice","9","78724","0.0-1.0-8.0","{""Q0"":""Ovenbird""}","Northern Waterthrush","Wood-Warblers","862"
"","3103","image-multi-choice","10","82840","0.0-1.0-9.0","{""Q0"":""Ovenbird""}","Ovenbird","Wood-Warblers","860"
"","8352","image-multi-choice","11","92204","0.0-1.0-10.0","{""Q0"":""Swamp Sparrow""}","Lincoln's Sparrow","New World Sparrows and Allies","903"
"","10707","image-multi-choice","12","103923","0.0-1.0-11.0","{""Q0"":""Black-and-white Warbler""}","Townsend's Warbler","Wood-Warblers","881"
"","16569","image-multi-choice","13","121503","0.0-1.0-12.0","{""Q0"":""Fox Sparrow""}","Fox Sparrow","New World Sparrows and Allies","901"
"","7160","image-multi-choice","14","129675","0.0-1.0-13.0","{""Q0"":""Lark Sparrow""}","Blackburnian Warbler","Wood-Warblers","874"
"","18404","image-multi-choice","15","149092","0.0-1.0-14.0","{""Q0"":""Lincoln's Sparrow""}","Vesper Sparrow","New World Sparrows and Allies","898"
"","3242","image-multi-choice","16","153348","0.0-1.0-15.0","{""Q0"":""Black-and-white Warbler""}","Black-and-white Warbler","Wood-Warblers","864"
"","6417","image-multi-choice","17","160782","0.0-1.0-16.0","{""Q0"":""Townsend's Warbler""}","Nashville Warbler","Wood-Warblers","868"
"","12976","image-multi-choice","18","174780","0.0-1.0-17.0","{""Q0"":""Lincoln's Sparrow""}","Lincoln's Sparrow","New World Sparrows and Allies","903"
"","5975","image-multi-choice","19","181771","0.0-1.0-18.0","{""Q0"":""Yellow Warbler""}","Nashville Warbler","Wood-Warblers","868"
"","29473","image-multi-choice","20","212256","0.0-1.0-19.0","{""Q0"":""Lark Sparrow""}","Lark Sparrow","New World Sparrows and Allies","899"
"","15425","image-multi-choice","21","228695","0.0-1.0-20.0","{""Q0"":""Blackburnian Warbler""}","Magnolia Warbler","Wood-Warblers","758"
"","6368","image-multi-choice","22","236076","0.0-1.0-21.0","{""Q0"":""Blackburnian Warbler""}","Townsend's Warbler","Wood-Warblers","881"
"","10134","image-multi-choice","23","247223","0.0-1.0-22.0","{""Q0"":""Vesper Sparrow""}","Swamp Sparrow","New World Sparrows and Allies","904"
"","10201","image-multi-choice","24","258434","0.0-1.0-23.0","{""Q0"":""Tennessee Warbler""}","Tennessee Warbler","Wood-Warblers","866"
"","3249","image-multi-choice","25","262711","0.0-1.0-24.0","{""Q0"":""Ovenbird""}","Ovenbird","Wood-Warblers","860"
"","7173","image-multi-choice","26","270895","0.0-1.0-25.0","{""Q0"":""White-crowned Sparrow""}","White-crowned Sparrow","New World Sparrows and Allies","766"
"","13296","image-multi-choice","27","285215","0.0-1.0-26.0","{""Q0"":""Vesper Sparrow""}","Vesper Sparrow","New World Sparrows and Allies","898"
"","15300","image-multi-choice","28","301527","0.0-1.0-27.0","{""Q0"":""Townsend's Warbler""}","Orange-crowned Warbler","Wood-Warblers","867"
"","46804","image-multi-choice","29","349341","0.0-1.0-28.0","{""Q0"":""Nashville Warbler""}","American Tree Sparrow","New World Sparrows and Allies","894"
"","24780","image-multi-choice","30","375140","0.0-1.0-29.0","{""Q0"":""Tennessee Warbler""}","Tennessee Warbler","Wood-Warblers","866"
"","5884","image-multi-choice","31","382038","0.0-1.0-30.0","{""Q0"":""Blackburnian Warbler""}","Magnolia Warbler","Wood-Warblers","758"
"","4225","image-multi-choice","32","387280","0.0-1.0-31.0","{""Q0"":""Blackburnian Warbler""}","Blackburnian Warbler","Wood-Warblers","874"
"","9816","image-multi-choice","33","398116","0.0-1.0-32.0","{""Q0"":""Tennessee Warbler""}","Tennessee Warbler","Wood-Warblers","866"
"","5533","image-multi-choice","34","404671","0.0-1.0-33.0","{""Q0"":""Song Sparrow""}","Vesper Sparrow","New World Sparrows and Allies","898"
"","7147","image-multi-choice","35","412828","0.0-1.0-34.0","{""Q0"":""Orange-crowned Warbler""}","Orange-crowned Warbler","Wood-Warblers","867"
"","6656","image-multi-choice","36","420498","0.0-1.0-35.0","{""Q0"":""White-crowned Sparrow""}","White-crowned Sparrow","New World Sparrows and Allies","766"
"","11620","image-multi-choice","37","433125","0.0-1.0-36.0","{""Q0"":""Fox Sparrow""}","Fox Sparrow","New World Sparrows and Allies","901"
"","13606","image-multi-choice","38","447737","0.0-1.0-37.0","{""Q0"":""Swamp Sparrow""}","Swamp Sparrow","New World Sparrows and Allies","904"
"","2233","image-multi-choice","39","450975","0.0-1.0-38.0","{""Q0"":""Yellow Warbler""}","Yellow Warbler","Wood-Warblers","875"
"","9941","image-multi-choice","40","461923","0.0-1.0-39.0","{""Q0"":""Townsend's Warbler""}","Black-and-white Warbler","Wood-Warblers","864"
"","8616","image-multi-choice","41","471564","0.0-1.0-40.0","{""Q0"":""Fox Sparrow""}","Fox Sparrow","New World Sparrows and Allies","901"
"","19973","image-multi-choice","42","492544","0.0-1.0-41.0","{""Q0"":""Orange-crowned Warbler""}","Northern Waterthrush","Wood-Warblers","862"
"","8160","image-multi-choice","43","501709","0.0-1.0-42.0","{""Q0"":""Yellow Warbler""}","Nashville Warbler","Wood-Warblers","868"
"","6309","image-multi-choice","44","509027","0.0-1.0-43.0","{""Q0"":""Blackburnian Warbler""}","Blackburnian Warbler","Wood-Warblers","874"
"","6361","image-multi-choice","45","516402","0.0-1.0-44.0","{""Q0"":""Tennessee Warbler""}","Orange-crowned Warbler","Wood-Warblers","867"
"","10124","image-multi-choice","46","527540","0.0-1.0-45.0","{""Q0"":""Chipping Sparrow""}","Blackburnian Warbler","Wood-Warblers","874"
"","15694","image-multi-choice","47","544248","0.0-1.0-46.0","{""Q0"":""Townsend's Warbler""}","Nashville Warbler","Wood-Warblers","868"
"","6130","image-multi-choice","48","551388","0.0-1.0-47.0","{""Q0"":""Northern Waterthrush""}","Northern Waterthrush","Wood-Warblers","862"
"","18827","image-multi-choice","49","571228","0.0-1.0-48.0","{""Q0"":""Vesper Sparrow""}","Fox Sparrow","New World Sparrows and Allies","901"
"","8545","image-multi-choice","50","580774","0.0-1.0-49.0","{""Q0"":""Tennessee Warbler""}","Swamp Sparrow","New World Sparrows and Allies","904"
"","20036","image-multi-choice","51","601840","0.0-1.0-50.0","{""Q0"":""Nashville Warbler""}","Nashville Warbler","Wood-Warblers","868"
"","3983","image-multi-choice","52","606848","0.0-1.0-51.0","{""Q0"":""Black-and-white Warbler""}","Black-and-white Warbler","Wood-Warblers","864"
"","6291","image-multi-choice","53","614152","0.0-1.0-52.0","{""Q0"":""Chipping Sparrow""}","American Tree Sparrow","New World Sparrows and Allies","894"
"","3835","image-multi-choice","54","619006","0.0-1.0-53.0","{""Q0"":""Black-and-white Warbler""}","Black-and-white Warbler","Wood-Warblers","864"
"","12689","image-multi-choice","55","632714","0.0-1.0-54.0","{""Q0"":""Blackburnian Warbler""}","Townsend's Warbler","Wood-Warblers","881"
"","8735","image-multi-choice","56","642470","0.0-1.0-55.0","{""Q0"":""Lark Sparrow""}","Lark Sparrow","New World Sparrows and Allies","899"
"","3489","image-multi-choice","57","646971","0.0-1.0-56.0","{""Q0"":""Ovenbird""}","Ovenbird","Wood-Warblers","860"
"","11379","image-multi-choice","58","659364","0.0-1.0-57.0","{""Q0"":""Lincoln's Sparrow""}","Song Sparrow","New World Sparrows and Allies","902"
"","6813","image-multi-choice","59","667198","0.0-1.0-58.0","{""Q0"":""American Tree Sparrow""}","Chipping Sparrow","New World Sparrows and Allies","769"
"","3913","image-multi-choice","60","681359","0.0-1.0-59.0","{""Q0"":""Black-and-white Warbler""}","Black-and-white Warbler","Wood-Warblers","864"
"","17035","image-multi-choice","61","699406","0.0-1.0-60.0","{""Q0"":""Chipping Sparrow""}","Chipping Sparrow","New World Sparrows and Allies","769"
"","12603","image-multi-choice","62","713027","0.0-1.0-61.0","{""Q0"":""Vesper Sparrow""}","Swamp Sparrow","New World Sparrows and Allies","904"
"","5166","image-multi-choice","63","719204","0.0-1.0-62.0","{""Q0"":""Yellow Warbler""}","Nashville Warbler","Wood-Warblers","868"
"","4240","image-multi-choice","64","724460","0.0-1.0-63.0","{""Q0"":""Fox Sparrow""}","Lincoln's Sparrow","New World Sparrows and Allies","903"
"","4676","image-multi-choice","65","730147","0.0-1.0-64.0","{""Q0"":""Blackburnian Warbler""}","Black-and-white Warbler","Wood-Warblers","864"
"","9587","image-multi-choice","66","740748","0.0-1.0-65.0","{""Q0"":""Vesper Sparrow""}","Fox Sparrow","New World Sparrows and Allies","901"
"","9533","image-multi-choice","67","751292","0.0-1.0-66.0","{""Q0"":""Orange-crowned Warbler""}","Townsend's Warbler","Wood-Warblers","881"
"","4116","image-multi-choice","68","756420","0.0-1.0-67.0","{""Q0"":""Yellow Warbler""}","Yellow Warbler","Wood-Warblers","875"
"","3471","image-multi-choice","69","760896","0.0-1.0-68.0","{""Q0"":""Tennessee Warbler""}","Tennessee Warbler","Wood-Warblers","866"
"","3019","image-multi-choice","70","764927","0.0-1.0-69.0","{""Q0"":""Ovenbird""}","Ovenbird","Wood-Warblers","860"
"","14482","image-multi-choice","71","780419","0.0-1.0-70.0","{""Q0"":""Townsend's Warbler""}","Townsend's Warbler","Wood-Warblers","881"
"","2945","image-multi-choice","72","784375","0.0-1.0-71.0","{""Q0"":""Black-and-white Warbler""}","Black-and-white Warbler","Wood-Warblers","864"
"","6498","image-multi-choice","73","791884","0.0-1.0-72.0","{""Q0"":""Song Sparrow""}","Song Sparrow","New World Sparrows and Allies","902"
"","4731","image-multi-choice","74","797627","0.0-1.0-73.0","{""Q0"":""Northern Waterthrush""}","Northern Waterthrush","Wood-Warblers","862"
"","5204","image-multi-choice","75","803843","0.0-1.0-74.0","{""Q0"":""Chipping Sparrow""}","Swamp Sparrow","New World Sparrows and Allies","904"
"","4837","image-multi-choice","76","809692","0.0-1.0-75.0","{""Q0"":""White-crowned Sparrow""}","White-crowned Sparrow","New World Sparrows and Allies","766"
"","3531","image-multi-choice","77","814236","0.0-1.0-76.0","{""Q0"":""White-throated Sparrow""}","White-throated Sparrow","New World Sparrows and Allies","764"
"","8040","image-multi-choice","78","823287","0.0-1.0-77.0","{""Q0"":""Townsend's Warbler""}","Townsend's Warbler","Wood-Warblers","881"
"","3905","image-multi-choice","79","828204","0.0-1.0-78.0","{""Q0"":""Fox Sparrow""}","Vesper Sparrow","New World Sparrows and Allies","898"
"","6647","image-multi-choice","80","835864","0.0-1.0-79.0","{""Q0"":""White-crowned Sparrow""}","White-throated Sparrow","New World Sparrows and Allies","764"
"","9525","image-multi-choice","81","846404","0.0-1.0-80.0","{""Q0"":""Lark Sparrow""}","Northern Waterthrush","Wood-Warblers","862"
"","3541","image-multi-choice","82","850956","0.0-1.0-81.0","{""Q0"":""Yellow Warbler""}","Yellow Warbler","Wood-Warblers","875"
"","15365","image-multi-choice","83","867332","0.0-1.0-82.0","{""Q0"":""Nashville Warbler""}","Nashville Warbler","Wood-Warblers","868"
"","10671","image-multi-choice","84","879014","0.0-1.0-83.0","{""Q0"":""Chipping Sparrow""}","Lark Sparrow","New World Sparrows and Allies","899"
"","7479","image-multi-choice","85","887504","0.0-1.0-84.0","{""Q0"":""Orange-crowned Warbler""}","Orange-crowned Warbler","Wood-Warblers","867"
"","12687","image-multi-choice","86","901203","0.0-1.0-85.0","{""Q0"":""Yellow Warbler""}","Nashville Warbler","Wood-Warblers","868"
"","3090","image-multi-choice","87","905308","0.0-1.0-86.0","{""Q0"":""Black-and-white Warbler""}","Black-and-white Warbler","Wood-Warblers","864"
"","2584","image-multi-choice","88","908904","0.0-1.0-87.0","{""Q0"":""Yellow Warbler""}","Nashville Warbler","Wood-Warblers","868"
"","2579","image-multi-choice","89","912496","0.0-1.0-88.0","{""Q0"":""Ovenbird""}","Ovenbird","Wood-Warblers","860"
"","6055","image-multi-choice","90","919563","0.0-1.0-89.0","{""Q0"":""Blackburnian Warbler""}","Black-and-white Warbler","Wood-Warblers","864"
"","4576","image-multi-choice","91","925152","0.0-1.0-90.0","{""Q0"":""Chipping Sparrow""}","Chipping Sparrow","New World Sparrows and Allies","769"
"","3876","image-multi-choice","92","930040","0.0-1.0-91.0","{""Q0"":""Tennessee Warbler""}","Tennessee Warbler","Wood-Warblers","866"
"","13755","image-multi-choice","93","944808","0.0-1.0-92.0","{""Q0"":""White-throated Sparrow""}","White-throated Sparrow","New World Sparrows and Allies","764"
"","18508","image-multi-choice","94","964328","0.0-1.0-93.0","{""Q0"":""Song Sparrow""}","Song Sparrow","New World Sparrows and Allies","902"
"","4539","image-multi-choice","95","969881","0.0-1.0-94.0","{""Q0"":""Blackburnian Warbler""}","Blackburnian Warbler","Wood-Warblers","874"
"","5083","image-multi-choice","96","975976","0.0-1.0-95.0","{""Q0"":""Chipping Sparrow""}","American Tree Sparrow","New World Sparrows and Allies","894"
"","3246","image-multi-choice","97","980240","0.0-1.0-96.0","{""Q0"":""White-throated Sparrow""}","White-throated Sparrow","New World Sparrows and Allies","764"
"","23347","image-multi-choice","98","1004597","0.0-1.0-97.0","{""Q0"":""Orange-crowned Warbler""}","Orange-crowned Warbler","Wood-Warblers","867"
"","2008","image-multi-choice","99","1007628","0.0-1.0-98.0","{""Q0"":""Yellow Warbler""}","Yellow Warbler","Wood-Warblers","875"
"","12014","image-multi-choice","100","1020651","0.0-1.0-99.0","{""Q0"":""Fox Sparrow""}","Fox Sparrow","New World Sparrows and Allies","901"
"","13162","image-multi-choice","101","1034822","0.0-1.0-100.0","{""Q0"":""Swamp Sparrow""}","Chipping Sparrow","New World Sparrows and Allies","769"
"","6558","image-multi-choice","102","1042408","0.0-1.0-101.0","{""Q0"":""Northern Waterthrush""}","Northern Waterthrush","Wood-Warblers","862"
"","4889","image-multi-choice","103","1048324","0.0-1.0-102.0","{""Q0"":""Chipping Sparrow""}","Swamp Sparrow","New World Sparrows and Allies","904"
"","3173","image-multi-choice","104","1052520","0.0-1.0-103.0","{""Q0"":""Northern Waterthrush""}","Northern Waterthrush","Wood-Warblers","862"
"","1897","image-multi-choice","105","1055427","0.0-1.0-104.0","{""Q0"":""Yellow Warbler""}","Yellow Warbler","Wood-Warblers","875"
"","15400","image-multi-choice","106","1071838","0.0-1.0-105.0","{""Q0"":""Magnolia Warbler""}","Magnolia Warbler","Wood-Warblers","758"
"","5436","image-multi-choice","107","1078283","0.0-1.0-106.0","{""Q0"":""Blackburnian Warbler""}","Townsend's Warbler","Wood-Warblers","881"
"","14264","image-multi-choice","108","1093554","0.0-1.0-107.0","{""Q0"":""American Tree Sparrow""}","Swamp Sparrow","New World Sparrows and Allies","904"
"","15235","image-multi-choice","109","1109800","0.0-1.0-108.0","{""Q0"":""Fox Sparrow""}","Fox Sparrow","New World Sparrows and Allies","901"
"","2425","image-multi-choice","110","1113237","0.0-1.0-109.0","{""Q0"":""Yellow Warbler""}","Yellow Warbler","Wood-Warblers","875"
"","12472","image-multi-choice","111","1126722","0.0-1.0-110.0","{""Q0"":""Vesper Sparrow""}","Lincoln's Sparrow","New World Sparrows and Allies","903"
"","5563","image-multi-choice","112","1133307","0.0-1.0-111.0","{""Q0"":""Blackburnian Warbler""}","Townsend's Warbler","Wood-Warblers","881"
"","4118","image-multi-choice","113","1138446","0.0-1.0-112.0","{""Q0"":""White-crowned Sparrow""}","White-crowned Sparrow","New World Sparrows and Allies","766"
"","4249","image-multi-choice","114","1143706","0.0-1.0-113.0","{""Q0"":""Blackburnian Warbler""}","Blackburnian Warbler","Wood-Warblers","874"
"","7785","image-multi-choice","115","1152503","0.0-1.0-114.0","{""Q0"":""Orange-crowned Warbler""}","Nashville Warbler","Wood-Warblers","868"
"","7465","image-multi-choice","116","1160977","0.0-1.0-115.0","{""Q0"":""Tennessee Warbler""}","Tennessee Warbler","Wood-Warblers","866"
"","10090","image-multi-choice","117","1172081","0.0-1.0-116.0","{""Q0"":""Lincoln's Sparrow""}","Vesper Sparrow","New World Sparrows and Allies","898"
"","9419","image-multi-choice","118","1182514","0.0-1.0-117.0","{""Q0"":""Song Sparrow""}","Swamp Sparrow","New World Sparrows and Allies","904"
"","3610","image-multi-choice","119","1187143","0.0-1.0-118.0","{""Q0"":""White-crowned Sparrow""}","White-crowned Sparrow","New World Sparrows and Allies","766"
"","3620","image-multi-choice","120","1194827","0.0-1.0-119.0","{""Q0"":""Blackburnian Warbler""}","Blackburnian Warbler","Wood-Warblers","874"
"","6922","image-multi-choice","121","1202761","0.0-1.0-120.0","{""Q0"":""Fox Sparrow""}","Fox Sparrow","New World Sparrows and Allies","901"
"","7914","image-multi-choice","122","1211700","0.0-1.0-121.0","{""Q0"":""Vesper Sparrow""}","Vesper Sparrow","New World Sparrows and Allies","898"
"","3076","image-multi-choice","123","1215798","0.0-1.0-122.0","{""Q0"":""Yellow Warbler""}","Yellow Warbler","Wood-Warblers","875"
"","3298","image-multi-choice","124","1220110","0.0-1.0-123.0","{""Q0"":""Song Sparrow""}","Song Sparrow","New World Sparrows and Allies","902"
"","6158","image-multi-choice","125","1227282","0.0-1.0-124.0","{""Q0"":""Blackburnian Warbler""}","Townsend's Warbler","Wood-Warblers","881"
"","4413","image-multi-choice","126","1232710","0.0-1.0-125.0","{""Q0"":""White-crowned Sparrow""}","White-crowned Sparrow","New World Sparrows and Allies","766"
"","3687","image-multi-choice","127","1237407","0.0-1.0-126.0","{""Q0"":""Song Sparrow""}","Song Sparrow","New World Sparrows and Allies","902"
"","3827","image-multi-choice","128","1242247","0.0-1.0-127.0","{""Q0"":""Ovenbird""}","Ovenbird","Wood-Warblers","860"
"","10871","image-multi-choice","129","1254121","0.0-1.0-128.0","{""Q0"":""Townsend's Warbler""}","Magnolia Warbler","Wood-Warblers","758"
"","7504","image-multi-choice","130","1262632","0.0-1.0-129.0","{""Q0"":""Lincoln's Sparrow""}","Swamp Sparrow","New World Sparrows and Allies","904"
"","10889","image-multi-choice","131","1274551","0.0-1.0-130.0","{""Q0"":""Lark Sparrow""}","Lark Sparrow","New World Sparrows and Allies","899"
"","9273","image-multi-choice","132","1284828","0.0-1.0-131.0","{""Q0"":""Magnolia Warbler""}","Magnolia Warbler","Wood-Warblers","758"
"","3444","image-multi-choice","133","1289278","0.0-1.0-132.0","{""Q0"":""White-throated Sparrow""}","White-throated Sparrow","New World Sparrows and Allies","764"
"","5818","image-multi-choice","134","1296108","0.0-1.0-133.0","{""Q0"":""Townsend's Warbler""}","Magnolia Warbler","Wood-Warblers","758"
"","2713","image-multi-choice","135","1299839","0.0-1.0-134.0","{""Q0"":""Yellow Warbler""}","Yellow Warbler","Wood-Warblers","875"
"","4377","image-multi-choice","136","1305226","0.0-1.0-135.0","{""Q0"":""Tennessee Warbler""}","Tennessee Warbler","Wood-Warblers","866"
"","3159","image-multi-choice","137","1309407","0.0-1.0-136.0","{""Q0"":""Ovenbird""}","Ovenbird","Wood-Warblers","860"
"","3405","image-multi-choice","138","1313816","0.0-1.0-137.0","{""Q0"":""Black-and-white Warbler""}","Black-and-white Warbler","Wood-Warblers","864"
"","4133","image-multi-choice","139","1318954","0.0-1.0-138.0","{""Q0"":""Fox Sparrow""}","Chipping Sparrow","New World Sparrows and Allies","769"
"","2991","image-multi-choice","140","1322948","0.0-1.0-139.0","{""Q0"":""Northern Waterthrush""}","Northern Waterthrush","Wood-Warblers","862"
"","9043","image-multi-choice","141","1332997","0.0-1.0-140.0","{""Q0"":""Lincoln's Sparrow""}","Vesper Sparrow","New World Sparrows and Allies","898"
"","7103","image-multi-choice","142","1341107","0.0-1.0-141.0","{""Q0"":""White-throated Sparrow""}","White-throated Sparrow","New World Sparrows and Allies","764"
"","3424","image-multi-choice","143","1345537","0.0-1.0-142.0","{""Q0"":""Blackburnian Warbler""}","Magnolia Warbler","Wood-Warblers","758"
"","3023","image-multi-choice","144","1349573","0.0-1.0-143.0","{""Q0"":""Black-and-white Warbler""}","Blackburnian Warbler","Wood-Warblers","874"
"","5664","image-multi-choice","145","1356249","0.0-1.0-144.0","{""Q0"":""Chipping Sparrow""}","Lark Sparrow","New World Sparrows and Allies","899"
"","3200","image-multi-choice","146","1360472","0.0-1.0-145.0","{""Q0"":""Fox Sparrow""}","Song Sparrow","New World Sparrows and Allies","902"
"","5100","image-multi-choice","147","1366587","0.0-1.0-146.0","{""Q0"":""White-crowned Sparrow""}","White-crowned Sparrow","New World Sparrows and Allies","766"
"","4850","image-multi-choice","148","1372446","0.0-1.0-147.0","{""Q0"":""Lark Sparrow""}","Chipping Sparrow","New World Sparrows and Allies","769"
"","3780","image-multi-choice","149","1377242","0.0-1.0-148.0","{""Q0"":""Chipping Sparrow""}","Swamp Sparrow","New World Sparrows and Allies","904"
"","7733","image-multi-choice","150","1385999","0.0-1.0-149.0","{""Q0"":""Fox Sparrow""}","Fox Sparrow","New World Sparrows and Allies","901"
"","2842","image-multi-choice","151","1389864","0.0-1.0-150.0","{""Q0"":""Yellow Warbler""}","Yellow Warbler","Wood-Warblers","875"
"","3255","image-multi-choice","152","1394136","0.0-1.0-151.0","{""Q0"":""White-crowned Sparrow""}","White-crowned Sparrow","New World Sparrows and Allies","766"
"","3917","image-multi-choice","153","1399056","0.0-1.0-152.0","{""Q0"":""Fox Sparrow""}","Song Sparrow","New World Sparrows and Allies","902"
"","3006","image-multi-choice","154","1403079","0.0-1.0-153.0","{""Q0"":""Northern Waterthrush""}","Northern Waterthrush","Wood-Warblers","862"
"","3595","image-multi-choice","155","1407696","0.0-1.0-154.0","{""Q0"":""White-throated Sparrow""}","White-crowned Sparrow","New World Sparrows and Allies","766"
"","2405","image-multi-choice","156","1411119","0.0-1.0-155.0","{""Q0"":""Yellow Warbler""}","Yellow Warbler","Wood-Warblers","875"
"","4071","image-multi-choice","157","1416205","0.0-1.0-156.0","{""Q0"":""White-throated Sparrow""}","White-throated Sparrow","New World Sparrows and Allies","764"
"","3192","image-multi-choice","158","1420403","0.0-1.0-157.0","{""Q0"":""White-crowned Sparrow""}","White-crowned Sparrow","New World Sparrows and Allies","766"
"","3365","image-multi-choice","159","1424780","0.0-1.0-158.0","{""Q0"":""Blackburnian Warbler""}","Townsend's Warbler","Wood-Warblers","881"
"","5078","image-multi-choice","160","1430880","0.0-1.0-159.0","{""Q0"":""Orange-crowned Warbler""}","Tennessee Warbler","Wood-Warblers","866"
"","2520","image-multi-choice","161","1434408","0.0-1.0-160.0","{""Q0"":""White-throated Sparrow""}","White-throated Sparrow","New World Sparrows and Allies","764"
"","4458","image-multi-choice","162","1439875","0.0-1.0-161.0","{""Q0"":""Fox Sparrow""}","Fox Sparrow","New World Sparrows and Allies","901"
"","3281","image-multi-choice","163","1444178","0.0-1.0-162.0","{""Q0"":""Fox Sparrow""}","Song Sparrow","New World Sparrows and Allies","902"
"","3340","image-multi-choice","164","1448524","0.0-1.0-163.0","{""Q0"":""White-crowned Sparrow""}","White-crowned Sparrow","New World Sparrows and Allies","766"
"","2635","image-multi-choice","165","1452168","0.0-1.0-164.0","{""Q0"":""Fox Sparrow""}","Song Sparrow","New World Sparrows and Allies","902"
"","3218","image-multi-choice","166","1456406","0.0-1.0-165.0","{""Q0"":""American Tree Sparrow""}","American Tree Sparrow","New World Sparrows and Allies","894"
"","5819","image-multi-choice","167","1463230","0.0-1.0-166.0","{""Q0"":""Townsend's Warbler""}","Orange-crowned Warbler","Wood-Warblers","867"
"","3789","image-multi-choice","168","1468025","0.0-1.0-167.0","{""Q0"":""Lark Sparrow""}","Lincoln's Sparrow","New World Sparrows and Allies","903"
"","2906","image-multi-choice","169","1471940","0.0-1.0-168.0","{""Q0"":""Blackburnian Warbler""}","Blackburnian Warbler","Wood-Warblers","874"
"","3035","image-multi-choice","170","1475994","0.0-1.0-169.0","{""Q0"":""White-throated Sparrow""}","White-throated Sparrow","New World Sparrows and Allies","764"
"","3657","image-multi-choice","171","1480662","0.0-1.0-170.0","{""Q0"":""Fox Sparrow""}","Fox Sparrow","New World Sparrows and Allies","901"
"","4404","image-multi-choice","172","1486087","0.0-1.0-171.0","{""Q0"":""Lincoln's Sparrow""}","Chipping Sparrow","New World Sparrows and Allies","769"
"","6955","image-multi-choice","173","1494052","0.0-1.0-172.0","{""Q0"":""Vesper Sparrow""}","Swamp Sparrow","New World Sparrows and Allies","904"
"","3059","image-multi-choice","174","1498135","0.0-1.0-173.0","{""Q0"":""Song Sparrow""}","Lincoln's Sparrow","New World Sparrows and Allies","903"
"","4715","image-multi-choice","175","1503871","0.0-1.0-174.0","{""Q0"":""Chipping Sparrow""}","Swamp Sparrow","New World Sparrows and Allies","904"
"","3342","image-multi-choice","176","1508221","0.0-1.0-175.0","{""Q0"":""Blackburnian Warbler""}","Townsend's Warbler","Wood-Warblers","881"
"","8147","image-multi-choice","177","1517391","0.0-1.0-176.0","{""Q0"":""Swamp Sparrow""}","American Tree Sparrow","New World Sparrows and Allies","894"
"","3546","image-multi-choice","178","1521938","0.0-1.0-177.0","{""Q0"":""Northern Waterthrush""}","Fox Sparrow","New World Sparrows and Allies","901"
"","6347","image-multi-choice","179","1529295","0.0-1.0-178.0","{""Q0"":""Swamp Sparrow""}","Lincoln's Sparrow","New World Sparrows and Allies","903"
"","3602","image-multi-choice","180","1536854","0.0-1.0-179.0","{""Q0"":""Blackburnian Warbler""}","Magnolia Warbler","Wood-Warblers","758"
"","9726","image-multi-choice","181","1547604","0.0-1.0-180.0","{""Q0"":""Townsend's Warbler""}","Orange-crowned Warbler","Wood-Warblers","867"
"","5043","image-multi-choice","182","1553668","0.0-1.0-181.0","{""Q0"":""Orange-crowned Warbler""}","Tennessee Warbler","Wood-Warblers","866"
"","4769","image-multi-choice","183","1559451","0.0-1.0-182.0","{""Q0"":""Lark Sparrow""}","Vesper Sparrow","New World Sparrows and Allies","898"
"","2640","image-multi-choice","184","1563104","0.0-1.0-183.0","{""Q0"":""Blackburnian Warbler""}","Blackburnian Warbler","Wood-Warblers","874"
"","3947","image-multi-choice","185","1568064","0.0-1.0-184.0","{""Q0"":""Chipping Sparrow""}","Lincoln's Sparrow","New World Sparrows and Allies","903"
"","2912","image-multi-choice","186","1571988","0.0-1.0-185.0","{""Q0"":""Blackburnian Warbler""}","Townsend's Warbler","Wood-Warblers","881"
"","2523","image-multi-choice","187","1575524","0.0-1.0-186.0","{""Q0"":""Ovenbird""}","Ovenbird","Wood-Warblers","860"
"","2152","image-multi-choice","188","1578688","0.0-1.0-187.0","{""Q0"":""Yellow Warbler""}","Orange-crowned Warbler","Wood-Warblers","867"
"","2929","image-multi-choice","189","1582631","0.0-1.0-188.0","{""Q0"":""Chipping Sparrow""}","Chipping Sparrow","New World Sparrows and Allies","769"
"","4325","image-multi-choice","190","1587976","0.0-1.0-189.0","{""Q0"":""Lincoln's Sparrow""}","American Tree Sparrow","New World Sparrows and Allies","894"
"","3206","image-multi-choice","191","1592200","0.0-1.0-190.0","{""Q0"":""Fox Sparrow""}","Vesper Sparrow","New World Sparrows and Allies","898"
"","3540","image-multi-choice","192","1596752","0.0-1.0-191.0","{""Q0"":""Vesper Sparrow""}","Lincoln's Sparrow","New World Sparrows and Allies","903"
"","6696","image-multi-choice","193","1604456","0.0-1.0-192.0","{""Q0"":""Tennessee Warbler""}","Tennessee Warbler","Wood-Warblers","866"
"","5460","image-multi-choice","194","1610924","0.0-1.0-193.0","{""Q0"":""Swamp Sparrow""}","American Tree Sparrow","New World Sparrows and Allies","894"
"","6572","image-multi-choice","195","1618506","0.0-1.0-194.0","{""Q0"":""White-throated Sparrow""}","Lark Sparrow","New World Sparrows and Allies","899"
"","4659","image-multi-choice","196","1624171","0.0-1.0-195.0","{""Q0"":""Tennessee Warbler""}","Tennessee Warbler","Wood-Warblers","866"
"","4444","image-multi-choice","197","1629631","0.0-1.0-196.0","{""Q0"":""Northern Waterthrush""}","Northern Waterthrush","Wood-Warblers","862"
"","4761","image-multi-choice","198","1635403","0.0-1.0-197.0","{""Q0"":""White-throated Sparrow""}","White-throated Sparrow","New World Sparrows and Allies","764"
"","2093","image-multi-choice","199","1638508","0.0-1.0-198.0","{""Q0"":""Yellow Warbler""}","Yellow Warbler","Wood-Warblers","875"
"","2967","image-multi-choice","200","1642481","0.0-1.0-199.0","{""Q0"":""White-crowned Sparrow""}","White-crowned Sparrow","New World Sparrows and Allies","766"
"","8896","image-multi-choice","201","1652390","0.0-1.0-200.0","{""Q0"":""Chipping Sparrow""}","American Tree Sparrow","New World Sparrows and Allies","894"
"","3444","image-multi-choice","202","1656843","0.0-1.0-201.0","{""Q0"":""Ovenbird""}","Ovenbird","Wood-Warblers","860"
"","2508","image-multi-choice","203","1660360","0.0-1.0-202.0","{""Q0"":""Blackburnian Warbler""}","Magnolia Warbler","Wood-Warblers","758"
"","3060","image-multi-choice","204","1664440","0.0-1.0-203.0","{""Q0"":""Blackburnian Warbler""}","Black-and-white Warbler","Wood-Warblers","864"
"","3051","image-multi-choice","205","1668514","0.0-1.0-204.0","{""Q0"":""Northern Waterthrush""}","Northern Waterthrush","Wood-Warblers","862"
"","5604","image-multi-choice","206","1675139","0.0-1.0-205.0","{""Q0"":""Lark Sparrow""}","American Tree Sparrow","New World Sparrows and Allies","894"
"","3072","image-multi-choice","207","1679220","0.0-1.0-206.0","{""Q0"":""Blackburnian Warbler""}","Magnolia Warbler","Wood-Warblers","758"
"","7945","image-multi-choice","208","1688183","0.0-1.0-207.0","{""Q0"":""Nashville Warbler""}","Blackburnian Warbler","Wood-Warblers","874"
"","4004","image-multi-choice","209","1693205","0.0-1.0-208.0","{""Q0"":""Lark Sparrow""}","Swamp Sparrow","New World Sparrows and Allies","904"
"","4951","image-multi-choice","210","1699173","0.0-1.0-209.0","{""Q0"":""Swamp Sparrow""}","American Tree Sparrow","New World Sparrows and Allies","894"
"","3750","image-multi-choice","211","1703930","0.0-1.0-210.0","{""Q0"":""Ovenbird""}","Ovenbird","Wood-Warblers","860"
"","4323","image-multi-choice","212","1709269","0.0-1.0-211.0","{""Q0"":""Lincoln's Sparrow""}","Swamp Sparrow","New World Sparrows and Allies","904"
"","3918","image-multi-choice","213","1714215","0.0-1.0-212.0","{""Q0"":""Fox Sparrow""}","Song Sparrow","New World Sparrows and Allies","902"
"","3217","image-multi-choice","214","1718435","0.0-1.0-213.0","{""Q0"":""Blackburnian Warbler""}","Blackburnian Warbler","Wood-Warblers","874"
"","3149","image-multi-choice","215","1722596","0.0-1.0-214.0","{""Q0"":""American Tree Sparrow""}","Vesper Sparrow","New World Sparrows and Allies","898"
"","2806","image-multi-choice","216","1726416","0.0-1.0-215.0","{""Q0"":""Blackburnian Warbler""}","Blackburnian Warbler","Wood-Warblers","874"
"","4619","image-multi-choice","217","1732047","0.0-1.0-216.0","{""Q0"":""Lark Sparrow""}","Song Sparrow","New World Sparrows and Allies","902"
"","4280","image-multi-choice","218","1737343","0.0-1.0-217.0","{""Q0"":""Townsend's Warbler""}","Tennessee Warbler","Wood-Warblers","866"
"","4175","image-multi-choice","219","1742528","0.0-1.0-218.0","{""Q0"":""Black-and-white Warbler""}","Black-and-white Warbler","Wood-Warblers","864"
"","5024","image-multi-choice","220","1748563","0.0-1.0-219.0","{""Q0"":""Ovenbird""}","Ovenbird","Wood-Warblers","860"
"","3370","image-multi-choice","221","1752943","0.0-1.0-220.0","{""Q0"":""White-throated Sparrow""}","White-throated Sparrow","New World Sparrows and Allies","764"
"","3038","image-multi-choice","222","1756996","0.0-1.0-221.0","{""Q0"":""Chipping Sparrow""}","Vesper Sparrow","New World Sparrows and Allies","898"
"","5792","image-multi-choice","223","1763800","0.0-1.0-222.0","{""Q0"":""Swamp Sparrow""}","American Tree Sparrow","New World Sparrows and Allies","894"
"","2636","image-multi-choice","224","1767447","0.0-1.0-223.0","{""Q0"":""Yellow Warbler""}","Yellow Warbler","Wood-Warblers","875"
"","3168","image-multi-choice","225","1771628","0.0-1.0-224.0","{""Q0"":""Northern Waterthrush""}","Northern Waterthrush","Wood-Warblers","862"
"","3263","image-multi-choice","226","1775903","0.0-1.0-225.0","{""Q0"":""Blackburnian Warbler""}","Blackburnian Warbler","Wood-Warblers","874"
"","2634","image-multi-choice","227","1779553","0.0-1.0-226.0","{""Q0"":""White-throated Sparrow""}","White-throated Sparrow","New World Sparrows and Allies","764"
"","2955","image-multi-choice","228","1783535","0.0-1.0-227.0","{""Q0"":""Song Sparrow""}","Song Sparrow","New World Sparrows and Allies","902"
"","2458","image-multi-choice","229","1786996","0.0-1.0-228.0","{""Q0"":""Ovenbird""}","Ovenbird","Wood-Warblers","860"
"","2441","image-multi-choice","230","1790446","0.0-1.0-229.0","{""Q0"":""Blackburnian Warbler""}","Townsend's Warbler","Wood-Warblers","881"
"","2947","image-multi-choice","231","1794410","0.0-1.0-230.0","{""Q0"":""Yellow Warbler""}","Nashville Warbler","Wood-Warblers","868"
"","3429","image-multi-choice","232","1798846","0.0-1.0-231.0","{""Q0"":""Fox Sparrow""}","Fox Sparrow","New World Sparrows and Allies","901"
"","3408","image-multi-choice","233","1803276","0.0-1.0-232.0","{""Q0"":""Ovenbird""}","Ovenbird","Wood-Warblers","860"
"","2975","image-multi-choice","234","1807251","0.0-1.0-233.0","{""Q0"":""Blackburnian Warbler""}","Magnolia Warbler","Wood-Warblers","758"
"","4397","image-multi-choice","235","1812661","0.0-1.0-234.0","{""Q0"":""Vesper Sparrow""}","American Tree Sparrow","New World Sparrows and Allies","894"
"","4340","image-multi-choice","236","1818002","0.0-1.0-235.0","{""Q0"":""Blackburnian Warbler""}","Blackburnian Warbler","Wood-Warblers","874"
"","4929","image-multi-choice","237","1823944","0.0-1.0-236.0","{""Q0"":""Lincoln's Sparrow""}","Chipping Sparrow","New World Sparrows and Allies","769"
"","4715","image-multi-choice","238","1829676","0.0-1.0-237.0","{""Q0"":""Fox Sparrow""}","Fox Sparrow","New World Sparrows and Allies","901"
"","3160","image-multi-choice","239","1833840","0.0-1.0-238.0","{""Q0"":""Song Sparrow""}","Vesper Sparrow","New World Sparrows and Allies","898"
"","3361","image-multi-choice","240","1841081","0.0-1.0-239.0","{""Q0"":""Northern Waterthrush""}","Northern Waterthrush","Wood-Warblers","862"
"","4816","image-multi-choice","241","1846919","0.0-1.0-240.0","{""Q0"":""American Tree Sparrow""}","Lark Sparrow","New World Sparrows and Allies","899"
"","3614","image-multi-choice","242","1851539","0.0-1.0-241.0","{""Q0"":""Townsend's Warbler""}","Nashville Warbler","Wood-Warblers","868"
"","4451","image-multi-choice","243","1857005","0.0-1.0-242.0","{""Q0"":""Northern Waterthrush""}","Ovenbird","Wood-Warblers","860"
"","7149","image-multi-choice","244","1865165","0.0-1.0-243.0","{""Q0"":""Northern Waterthrush""}","Northern Waterthrush","Wood-Warblers","862"
"","3379","image-multi-choice","245","1869548","0.0-1.0-244.0","{""Q0"":""Magnolia Warbler""}","Orange-crowned Warbler","Wood-Warblers","867"
"","3126","image-multi-choice","246","1873686","0.0-1.0-245.0","{""Q0"":""Chipping Sparrow""}","Chipping Sparrow","New World Sparrows and Allies","769"
"","3877","image-multi-choice","247","1878584","0.0-1.0-246.0","{""Q0"":""Nashville Warbler""}","Tennessee Warbler","Wood-Warblers","866"
"","2445","image-multi-choice","248","1882040","0.0-1.0-247.0","{""Q0"":""Yellow Warbler""}","Yellow Warbler","Wood-Warblers","875"
"","4233","image-multi-choice","249","1887282","0.0-1.0-248.0","{""Q0"":""Lark Sparrow""}","Lincoln's Sparrow","New World Sparrows and Allies","903"
"","2464","image-multi-choice","250","1890767","0.0-1.0-249.0","{""Q0"":""American Tree Sparrow""}","Vesper Sparrow","New World Sparrows and Allies","898"
"","3189","image-multi-choice","251","1894976","0.0-1.0-250.0","{""Q0"":""Black-and-white Warbler""}","Black-and-white Warbler","Wood-Warblers","864"
"","3367","image-multi-choice","252","1899365","0.0-1.0-251.0","{""Q0"":""Fox Sparrow""}","Song Sparrow","New World Sparrows and Allies","902"
"","3565","image-multi-choice","253","1903948","0.0-1.0-252.0","{""Q0"":""Song Sparrow""}","Chipping Sparrow","New World Sparrows and Allies","769"
"","4267","image-multi-choice","254","1909228","0.0-1.0-253.0","{""Q0"":""Blackburnian Warbler""}","Magnolia Warbler","Wood-Warblers","758"
"","4539","image-multi-choice","255","1914780","0.0-1.0-254.0","{""Q0"":""Fox Sparrow""}","Lincoln's Sparrow","New World Sparrows and Allies","903"
"","2896","image-multi-choice","256","1918688","0.0-1.0-255.0","{""Q0"":""White-throated Sparrow""}","White-throated Sparrow","New World Sparrows and Allies","764"
"","2860","image-multi-choice","257","1922560","0.0-1.0-256.0","{""Q0"":""Fox Sparrow""}","Fox Sparrow","New World Sparrows and Allies","901"
"","4392","image-multi-choice","258","1927964","0.0-1.0-257.0","{""Q0"":""Black-and-white Warbler""}","Black-and-white Warbler","Wood-Warblers","864"
"","3962","image-multi-choice","259","1932940","0.0-1.0-258.0","{""Q0"":""Fox Sparrow""}","Chipping Sparrow","New World Sparrows and Allies","769"
"","4460","image-multi-choice","260","1938412","0.0-1.0-259.0","{""Q0"":""Townsend's Warbler""}","Orange-crowned Warbler","Wood-Warblers","867"
"","4476","image-multi-choice","261","1943899","0.0-1.0-260.0","{""Q0"":""Lark Sparrow""}","Lark Sparrow","New World Sparrows and Allies","899"
"","7352","image-multi-choice","262","1952264","0.0-1.0-261.0","{""Q0"":""Tennessee Warbler""}","Lincoln's Sparrow","New World Sparrows and Allies","903"
"","7239","image-multi-choice","263","1960516","0.0-1.0-262.0","{""Q0"":""Tennessee Warbler""}","Northern Waterthrush","Wood-Warblers","862"
"","3800","image-multi-choice","264","1965327","0.0-1.0-263.0","{""Q0"":""Townsend's Warbler""}","Nashville Warbler","Wood-Warblers","868"
"","4269","image-multi-choice","265","1970608","0.0-1.0-264.0","{""Q0"":""American Tree Sparrow""}","Lark Sparrow","New World Sparrows and Allies","899"
"","4147","image-multi-choice","266","1975768","0.0-1.0-265.0","{""Q0"":""Magnolia Warbler""}","Orange-crowned Warbler","Wood-Warblers","867"
"","3047","image-multi-choice","267","1979827","0.0-1.0-266.0","{""Q0"":""Blackburnian Warbler""}","Magnolia Warbler","Wood-Warblers","758"
"","3026","image-multi-choice","268","1983865","0.0-1.0-267.0","{""Q0"":""Tennessee Warbler""}","Orange-crowned Warbler","Wood-Warblers","867"
"","1840","image-multi-choice","269","1986716","0.0-1.0-268.0","{""Q0"":""Yellow Warbler""}","Yellow Warbler","Wood-Warblers","875"
"","3380","image-multi-choice","270","1991108","0.0-1.0-269.0","{""Q0"":""Tennessee Warbler""}","Orange-crowned Warbler","Wood-Warblers","867"
"","4962","image-multi-choice","271","1997083","0.0-1.0-270.0","{""Q0"":""Lark Sparrow""}","Lincoln's Sparrow","New World Sparrows and Allies","903"
"","4572","image-multi-choice","272","2002668","0.0-1.0-271.0","{""Q0"":""White-crowned Sparrow""}","Lark Sparrow","New World Sparrows and Allies","899"
"","2917","image-multi-choice","273","2006596","0.0-1.0-272.0","{""Q0"":""Fox Sparrow""}","Lincoln's Sparrow","New World Sparrows and Allies","903"
"","3368","image-multi-choice","274","2010976","0.0-1.0-273.0","{""Q0"":""Townsend's Warbler""}","Nashville Warbler","Wood-Warblers","868"
"","4217","image-multi-choice","275","2016202","0.0-1.0-274.0","{""Q0"":""Chipping Sparrow""}","Lark Sparrow","New World Sparrows and Allies","899"
"","4107","image-multi-choice","276","2021318","0.0-1.0-275.0","{""Q0"":""Lincoln's Sparrow""}","Chipping Sparrow","New World Sparrows and Allies","769"
"","2617","image-multi-choice","277","2024955","0.0-1.0-276.0","{""Q0"":""White-throated Sparrow""}","White-throated Sparrow","New World Sparrows and Allies","764"
"","6242","image-multi-choice","278","2032216","0.0-1.0-277.0","{""Q0"":""Swamp Sparrow""}","Song Sparrow","New World Sparrows and Allies","902"
"","2505","image-multi-choice","279","2035724","0.0-1.0-278.0","{""Q0"":""Ovenbird""}","Ovenbird","Wood-Warblers","860"
"","3378","image-multi-choice","280","2040108","0.0-1.0-279.0","{""Q0"":""White-crowned Sparrow""}","Lark Sparrow","New World Sparrows and Allies","899"
"","4887","image-multi-choice","281","2046032","0.0-1.0-280.0","{""Q0"":""Tennessee Warbler""}","Chipping Sparrow","New World Sparrows and Allies","769"
"","4789","image-multi-choice","282","2051824","0.0-1.0-281.0","{""Q0"":""Lincoln's Sparrow""}","Lark Sparrow","New World Sparrows and Allies","899"
"","3695","image-multi-choice","283","2056531","0.0-1.0-282.0","{""Q0"":""Lark Sparrow""}","Song Sparrow","New World Sparrows and Allies","902"
"","3928","image-multi-choice","284","2061487","0.0-1.0-283.0","{""Q0"":""Chipping Sparrow""}","White-throated Sparrow","New World Sparrows and Allies","764"
"","3347","image-multi-choice","285","2065841","0.0-1.0-284.0","{""Q0"":""Blackburnian Warbler""}","Magnolia Warbler","Wood-Warblers","758"
"","3710","image-multi-choice","286","2070556","0.0-1.0-285.0","{""Q0"":""Tennessee Warbler""}","Orange-crowned Warbler","Wood-Warblers","867"
"","4702","image-multi-choice","287","2076268","0.0-1.0-286.0","{""Q0"":""Lark Sparrow""}","Lincoln's Sparrow","New World Sparrows and Allies","903"
"","3725","image-multi-choice","288","2081008","0.0-1.0-287.0","{""Q0"":""White-crowned Sparrow""}","Lark Sparrow","New World Sparrows and Allies","899"
"","3981","image-multi-choice","289","2086000","0.0-1.0-288.0","{""Q0"":""Blackburnian Warbler""}","Townsend's Warbler","Wood-Warblers","881"
"","2780","image-multi-choice","290","2089792","0.0-1.0-289.0","{""Q0"":""Black-and-white Warbler""}","Black-and-white Warbler","Wood-Warblers","864"
"","2913","image-multi-choice","291","2093715","0.0-1.0-290.0","{""Q0"":""Tennessee Warbler""}","Tennessee Warbler","Wood-Warblers","866"
"","5102","image-multi-choice","292","2099828","0.0-1.0-291.0","{""Q0"":""Chipping Sparrow""}","American Tree Sparrow","New World Sparrows and Allies","894"
"","5108","image-multi-choice","293","2105948","0.0-1.0-292.0","{""Q0"":""Lincoln's Sparrow""}","Chipping Sparrow","New World Sparrows and Allies","769"
"","8581","image-multi-choice","294","2115540","0.0-1.0-293.0","{""Q0"":""Swamp Sparrow""}","Lark Sparrow","New World Sparrows and Allies","899"
"","3352","image-multi-choice","295","2119904","0.0-1.0-294.0","{""Q0"":""Blackburnian Warbler""}","Magnolia Warbler","Wood-Warblers","758"
"","2317","image-multi-choice","296","2123231","0.0-1.0-295.0","{""Q0"":""Yellow Warbler""}","Yellow Warbler","Wood-Warblers","875"
"","5044","image-multi-choice","297","2129287","0.0-1.0-296.0","{""Q0"":""White-crowned Sparrow""}","White-crowned Sparrow","New World Sparrows and Allies","766"
"","2778","image-multi-choice","298","2133076","0.0-1.0-297.0","{""Q0"":""Fox Sparrow""}","Swamp Sparrow","New World Sparrows and Allies","904"
"","4122","image-multi-choice","299","2138208","0.0-1.0-298.0","{""Q0"":""Tennessee Warbler""}","Orange-crowned Warbler","Wood-Warblers","867"
"","2817","image-multi-choice","300","2148935","0.0-1.0-299.0","{""Q0"":""Lark Sparrow""}","Vesper Sparrow","New World Sparrows and Allies","898"
"[{""page_index"":0,""viewing_time"":1179}]","1179","instructions","301","2151121","0.0-2.0","","","",""
