"view_history","rt","trial_type","trial_index","time_elapsed","internal_node_id","responses","bird","family","class"
"[{""page_index"":0,""viewing_time"":11142}]","11143","instructions","0","11144","0.0-0.0","","","",""
"","11080","image-multi-choice","1","23250","0.0-1.0-0.0","{""Q0"":""Song Sparrow""}","American Tree Sparrow","New World Sparrows and Allies","894"
"","6471","image-multi-choice","2","30735","0.0-1.0-1.0","{""Q0"":""Tennessee Warbler""}","Tennessee Warbler","Wood-Warblers","866"
"","5162","image-multi-choice","3","36908","0.0-1.0-2.0","{""Q0"":""White-crowned Sparrow""}","White-crowned Sparrow","New World Sparrows and Allies","766"
"","9886","image-multi-choice","4","47808","0.0-1.0-3.0","{""Q0"":""American Tree Sparrow""}","American Tree Sparrow","New World Sparrows and Allies","894"
"","4968","image-multi-choice","5","53793","0.0-1.0-4.0","{""Q0"":""White-crowned Sparrow""}","White-crowned Sparrow","New World Sparrows and Allies","766"
"","11458","image-multi-choice","6","66266","0.0-1.0-5.0","{""Q0"":""Blackburnian Warbler""}","Townsend's Warbler","Wood-Warblers","881"
"","6555","image-multi-choice","7","73833","0.0-1.0-6.0","{""Q0"":""Song Sparrow""}","Vesper Sparrow","New World Sparrows and Allies","898"
"","6870","image-multi-choice","8","81713","0.0-1.0-7.0","{""Q0"":""Orange-crowned Warbler""}","Nashville Warbler","Wood-Warblers","868"
"","7618","image-multi-choice","9","90342","0.0-1.0-8.0","{""Q0"":""Northern Waterthrush""}","Northern Waterthrush","Wood-Warblers","862"
"","5370","image-multi-choice","10","96723","0.0-1.0-9.0","{""Q0"":""Ovenbird""}","Ovenbird","Wood-Warblers","860"
"","5865","image-multi-choice","11","103601","0.0-1.0-10.0","{""Q0"":""Lincoln's Sparrow""}","Lincoln's Sparrow","New World Sparrows and Allies","903"
"","11620","image-multi-choice","12","116232","0.0-1.0-11.0","{""Q0"":""Nashville Warbler""}","Townsend's Warbler","Wood-Warblers","881"
"","9631","image-multi-choice","13","126874","0.0-1.0-12.0","{""Q0"":""Ovenbird""}","Fox Sparrow","New World Sparrows and Allies","901"
"","7093","image-multi-choice","14","134978","0.0-1.0-13.0","{""Q0"":""Vesper Sparrow""}","Blackburnian Warbler","Wood-Warblers","874"
"","6226","image-multi-choice","15","142213","0.0-1.0-14.0","{""Q0"":""Lark Sparrow""}","Vesper Sparrow","New World Sparrows and Allies","898"
"","5647","image-multi-choice","16","148870","0.0-1.0-15.0","{""Q0"":""Black-and-white Warbler""}","Black-and-white Warbler","Wood-Warblers","864"
"","4832","image-multi-choice","17","154712","0.0-1.0-16.0","{""Q0"":""Orange-crowned Warbler""}","Nashville Warbler","Wood-Warblers","868"
"","5523","image-multi-choice","18","161246","0.0-1.0-17.0","{""Q0"":""Lincoln's Sparrow""}","Lincoln's Sparrow","New World Sparrows and Allies","903"
"","4480","image-multi-choice","19","166738","0.0-1.0-18.0","{""Q0"":""Orange-crowned Warbler""}","Nashville Warbler","Wood-Warblers","868"
"","5474","image-multi-choice","20","173224","0.0-1.0-19.0","{""Q0"":""Lark Sparrow""}","Lark Sparrow","New World Sparrows and Allies","899"
"","6081","image-multi-choice","21","180316","0.0-1.0-20.0","{""Q0"":""Townsend's Warbler""}","Magnolia Warbler","Wood-Warblers","758"
"","7622","image-multi-choice","22","188949","0.0-1.0-21.0","{""Q0"":""Magnolia Warbler""}","Townsend's Warbler","Wood-Warblers","881"
"","5032","image-multi-choice","23","194990","0.0-1.0-22.0","{""Q0"":""White-throated Sparrow""}","Swamp Sparrow","New World Sparrows and Allies","904"
"","4452","image-multi-choice","24","200453","0.0-1.0-23.0","{""Q0"":""Orange-crowned Warbler""}","Tennessee Warbler","Wood-Warblers","866"
"","4177","image-multi-choice","25","205639","0.0-1.0-24.0","{""Q0"":""Ovenbird""}","Ovenbird","Wood-Warblers","860"
"","7850","image-multi-choice","26","214497","0.0-1.0-25.0","{""Q0"":""White-crowned Sparrow""}","White-crowned Sparrow","New World Sparrows and Allies","766"
"","15301","image-multi-choice","27","230807","0.0-1.0-26.0","{""Q0"":""Swamp Sparrow""}","Vesper Sparrow","New World Sparrows and Allies","898"
"","5375","image-multi-choice","28","237189","0.0-1.0-27.0","{""Q0"":""Orange-crowned Warbler""}","Orange-crowned Warbler","Wood-Warblers","867"
"","7329","image-multi-choice","29","245528","0.0-1.0-28.0","{""Q0"":""Vesper Sparrow""}","American Tree Sparrow","New World Sparrows and Allies","894"
"","11008","image-multi-choice","30","257548","0.0-1.0-29.0","{""Q0"":""Blackburnian Warbler""}","Tennessee Warbler","Wood-Warblers","866"
"","10880","image-multi-choice","31","269437","0.0-1.0-30.0","{""Q0"":""Blackburnian Warbler""}","Magnolia Warbler","Wood-Warblers","758"
"","11083","image-multi-choice","32","281533","0.0-1.0-31.0","{""Q0"":""Tennessee Warbler""}","Blackburnian Warbler","Wood-Warblers","874"
"","5845","image-multi-choice","33","288389","0.0-1.0-32.0","{""Q0"":""Tennessee Warbler""}","Tennessee Warbler","Wood-Warblers","866"
"","6731","image-multi-choice","34","296131","0.0-1.0-33.0","{""Q0"":""Song Sparrow""}","Vesper Sparrow","New World Sparrows and Allies","898"
"","9349","image-multi-choice","35","306492","0.0-1.0-34.0","{""Q0"":""Nashville Warbler""}","Orange-crowned Warbler","Wood-Warblers","867"
"","4564","image-multi-choice","36","312067","0.0-1.0-35.0","{""Q0"":""White-crowned Sparrow""}","White-crowned Sparrow","New World Sparrows and Allies","766"
"","3679","image-multi-choice","37","316754","0.0-1.0-36.0","{""Q0"":""Ovenbird""}","Fox Sparrow","New World Sparrows and Allies","901"
"","5651","image-multi-choice","38","323418","0.0-1.0-37.0","{""Q0"":""Lincoln's Sparrow""}","Swamp Sparrow","New World Sparrows and Allies","904"
"","7558","image-multi-choice","39","331989","0.0-1.0-38.0","{""Q0"":""Song Sparrow""}","Yellow Warbler","Wood-Warblers","875"
"","5822","image-multi-choice","40","338823","0.0-1.0-39.0","{""Q0"":""Black-and-white Warbler""}","Black-and-white Warbler","Wood-Warblers","864"
"","6828","image-multi-choice","41","346663","0.0-1.0-40.0","{""Q0"":""Song Sparrow""}","Fox Sparrow","New World Sparrows and Allies","901"
"","10769","image-multi-choice","42","358444","0.0-1.0-41.0","{""Q0"":""Northern Waterthrush""}","Northern Waterthrush","Wood-Warblers","862"
"","4594","image-multi-choice","43","364051","0.0-1.0-42.0","{""Q0"":""Orange-crowned Warbler""}","Nashville Warbler","Wood-Warblers","868"
"","6413","image-multi-choice","44","371475","0.0-1.0-43.0","{""Q0"":""Townsend's Warbler""}","Blackburnian Warbler","Wood-Warblers","874"
"","10750","image-multi-choice","45","383234","0.0-1.0-44.0","{""Q0"":""Nashville Warbler""}","Orange-crowned Warbler","Wood-Warblers","867"
"","9650","image-multi-choice","46","393892","0.0-1.0-45.0","{""Q0"":""Orange-crowned Warbler""}","Blackburnian Warbler","Wood-Warblers","874"
"","3863","image-multi-choice","47","398768","0.0-1.0-46.0","{""Q0"":""Orange-crowned Warbler""}","Nashville Warbler","Wood-Warblers","868"
"","7037","image-multi-choice","48","406816","0.0-1.0-47.0","{""Q0"":""Swamp Sparrow""}","Northern Waterthrush","Wood-Warblers","862"
"","6232","image-multi-choice","49","414060","0.0-1.0-48.0","{""Q0"":""Song Sparrow""}","Fox Sparrow","New World Sparrows and Allies","901"
"","6300","image-multi-choice","50","421372","0.0-1.0-49.0","{""Q0"":""Lincoln's Sparrow""}","Swamp Sparrow","New World Sparrows and Allies","904"
"","4485","image-multi-choice","51","426869","0.0-1.0-50.0","{""Q0"":""Tennessee Warbler""}","Nashville Warbler","Wood-Warblers","868"
"","6153","image-multi-choice","52","434030","0.0-1.0-51.0","{""Q0"":""Townsend's Warbler""}","Black-and-white Warbler","Wood-Warblers","864"
"","8700","image-multi-choice","53","443742","0.0-1.0-52.0","{""Q0"":""Lincoln's Sparrow""}","American Tree Sparrow","New World Sparrows and Allies","894"
"","6303","image-multi-choice","54","451067","0.0-1.0-53.0","{""Q0"":""Black-and-white Warbler""}","Black-and-white Warbler","Wood-Warblers","864"
"","7647","image-multi-choice","55","459726","0.0-1.0-54.0","{""Q0"":""Blackburnian Warbler""}","Townsend's Warbler","Wood-Warblers","881"
"","6826","image-multi-choice","56","467560","0.0-1.0-55.0","{""Q0"":""Lark Sparrow""}","Lark Sparrow","New World Sparrows and Allies","899"
"","7903","image-multi-choice","57","476475","0.0-1.0-56.0","{""Q0"":""Ovenbird""}","Ovenbird","Wood-Warblers","860"
"","5353","image-multi-choice","58","482841","0.0-1.0-57.0","{""Q0"":""Lincoln's Sparrow""}","Song Sparrow","New World Sparrows and Allies","902"
"","7413","image-multi-choice","59","491264","0.0-1.0-58.0","{""Q0"":""Swamp Sparrow""}","Chipping Sparrow","New World Sparrows and Allies","769"
"","5380","image-multi-choice","60","522715","0.0-1.0-59.0","{""Q0"":""Townsend's Warbler""}","Black-and-white Warbler","Wood-Warblers","864"
"","9221","image-multi-choice","61","532948","0.0-1.0-60.0","{""Q0"":""Lincoln's Sparrow""}","Chipping Sparrow","New World Sparrows and Allies","769"
"","5228","image-multi-choice","62","539187","0.0-1.0-61.0","{""Q0"":""Lincoln's Sparrow""}","Swamp Sparrow","New World Sparrows and Allies","904"
"","5286","image-multi-choice","63","545482","0.0-1.0-62.0","{""Q0"":""Nashville Warbler""}","Nashville Warbler","Wood-Warblers","868"
"","9029","image-multi-choice","64","555519","0.0-1.0-63.0","{""Q0"":""Lincoln's Sparrow""}","Lincoln's Sparrow","New World Sparrows and Allies","903"
"","11005","image-multi-choice","65","567536","0.0-1.0-64.0","{""Q0"":""Black-and-white Warbler""}","Black-and-white Warbler","Wood-Warblers","864"
"","4773","image-multi-choice","66","573317","0.0-1.0-65.0","{""Q0"":""Fox Sparrow""}","Fox Sparrow","New World Sparrows and Allies","901"
"","7234","image-multi-choice","67","581562","0.0-1.0-66.0","{""Q0"":""Vesper Sparrow""}","Townsend's Warbler","Wood-Warblers","881"
"","2735","image-multi-choice","68","585309","0.0-1.0-67.0","{""Q0"":""Yellow Warbler""}","Yellow Warbler","Wood-Warblers","875"
"","10179","image-multi-choice","69","596496","0.0-1.0-68.0","{""Q0"":""Nashville Warbler""}","Tennessee Warbler","Wood-Warblers","866"
"","7046","image-multi-choice","70","604551","0.0-1.0-69.0","{""Q0"":""Ovenbird""}","Ovenbird","Wood-Warblers","860"
"","6746","image-multi-choice","71","612308","0.0-1.0-70.0","{""Q0"":""White-throated Sparrow""}","Townsend's Warbler","Wood-Warblers","881"
"","5261","image-multi-choice","72","618577","0.0-1.0-71.0","{""Q0"":""Black-and-white Warbler""}","Black-and-white Warbler","Wood-Warblers","864"
"","4457","image-multi-choice","73","624042","0.0-1.0-72.0","{""Q0"":""White-throated Sparrow""}","Song Sparrow","New World Sparrows and Allies","902"
"","5256","image-multi-choice","74","630308","0.0-1.0-73.0","{""Q0"":""Northern Waterthrush""}","Northern Waterthrush","Wood-Warblers","862"
"","9870","image-multi-choice","75","641190","0.0-1.0-74.0","{""Q0"":""Lincoln's Sparrow""}","Swamp Sparrow","New World Sparrows and Allies","904"
"","4831","image-multi-choice","76","647035","0.0-1.0-75.0","{""Q0"":""White-crowned Sparrow""}","White-crowned Sparrow","New World Sparrows and Allies","766"
"","3582","image-multi-choice","77","651626","0.0-1.0-76.0","{""Q0"":""White-throated Sparrow""}","White-throated Sparrow","New World Sparrows and Allies","764"
"","4444","image-multi-choice","78","657079","0.0-1.0-77.0","{""Q0"":""Townsend's Warbler""}","Townsend's Warbler","Wood-Warblers","881"
"","9275","image-multi-choice","79","667365","0.0-1.0-78.0","{""Q0"":""Chipping Sparrow""}","Vesper Sparrow","New World Sparrows and Allies","898"
"","5307","image-multi-choice","80","673684","0.0-1.0-79.0","{""Q0"":""White-throated Sparrow""}","White-throated Sparrow","New World Sparrows and Allies","764"
"","6792","image-multi-choice","81","681484","0.0-1.0-80.0","{""Q0"":""Northern Waterthrush""}","Northern Waterthrush","Wood-Warblers","862"
"","3460","image-multi-choice","82","685952","0.0-1.0-81.0","{""Q0"":""Yellow Warbler""}","Yellow Warbler","Wood-Warblers","875"
"","4043","image-multi-choice","83","691003","0.0-1.0-82.0","{""Q0"":""Orange-crowned Warbler""}","Nashville Warbler","Wood-Warblers","868"
"","4780","image-multi-choice","84","696794","0.0-1.0-83.0","{""Q0"":""White-throated Sparrow""}","Lark Sparrow","New World Sparrows and Allies","899"
"","4193","image-multi-choice","85","701999","0.0-1.0-84.0","{""Q0"":""Orange-crowned Warbler""}","Orange-crowned Warbler","Wood-Warblers","867"
"","4055","image-multi-choice","86","707065","0.0-1.0-85.0","{""Q0"":""Nashville Warbler""}","Nashville Warbler","Wood-Warblers","868"
"","4807","image-multi-choice","87","712880","0.0-1.0-86.0","{""Q0"":""Black-and-white Warbler""}","Black-and-white Warbler","Wood-Warblers","864"
"","4998","image-multi-choice","88","718887","0.0-1.0-87.0","{""Q0"":""Nashville Warbler""}","Nashville Warbler","Wood-Warblers","868"
"","4460","image-multi-choice","89","724355","0.0-1.0-88.0","{""Q0"":""Ovenbird""}","Ovenbird","Wood-Warblers","860"
"","8919","image-multi-choice","90","734285","0.0-1.0-89.0","{""Q0"":""Tennessee Warbler""}","Black-and-white Warbler","Wood-Warblers","864"
"","8676","image-multi-choice","91","743972","0.0-1.0-90.0","{""Q0"":""Lincoln's Sparrow""}","Chipping Sparrow","New World Sparrows and Allies","769"
"","3649","image-multi-choice","92","748632","0.0-1.0-91.0","{""Q0"":""Orange-crowned Warbler""}","Tennessee Warbler","Wood-Warblers","866"
"","3483","image-multi-choice","93","753127","0.0-1.0-92.0","{""Q0"":""White-throated Sparrow""}","White-throated Sparrow","New World Sparrows and Allies","764"
"","7637","image-multi-choice","94","761773","0.0-1.0-93.0","{""Q0"":""American Tree Sparrow""}","Song Sparrow","New World Sparrows and Allies","902"
"","5675","image-multi-choice","95","768458","0.0-1.0-94.0","{""Q0"":""Townsend's Warbler""}","Blackburnian Warbler","Wood-Warblers","874"
"","6643","image-multi-choice","96","776114","0.0-1.0-95.0","{""Q0"":""American Tree Sparrow""}","American Tree Sparrow","New World Sparrows and Allies","894"
"","3785","image-multi-choice","97","780907","0.0-1.0-96.0","{""Q0"":""White-throated Sparrow""}","White-throated Sparrow","New World Sparrows and Allies","764"
"","5237","image-multi-choice","98","787155","0.0-1.0-97.0","{""Q0"":""Orange-crowned Warbler""}","Orange-crowned Warbler","Wood-Warblers","867"
"","2985","image-multi-choice","99","791151","0.0-1.0-98.0","{""Q0"":""Yellow Warbler""}","Yellow Warbler","Wood-Warblers","875"
"","7382","image-multi-choice","100","799544","0.0-1.0-99.0","{""Q0"":""Fox Sparrow""}","Fox Sparrow","New World Sparrows and Allies","901"
"","7330","image-multi-choice","101","807882","0.0-1.0-100.0","{""Q0"":""Northern Waterthrush""}","Chipping Sparrow","New World Sparrows and Allies","769"
"","4591","image-multi-choice","102","813483","0.0-1.0-101.0","{""Q0"":""Northern Waterthrush""}","Northern Waterthrush","Wood-Warblers","862"
"","4610","image-multi-choice","103","819102","0.0-1.0-102.0","{""Q0"":""Lincoln's Sparrow""}","Swamp Sparrow","New World Sparrows and Allies","904"
"","7157","image-multi-choice","104","827272","0.0-1.0-103.0","{""Q0"":""Song Sparrow""}","Northern Waterthrush","Wood-Warblers","862"
"","3142","image-multi-choice","105","831426","0.0-1.0-104.0","{""Q0"":""Yellow Warbler""}","Yellow Warbler","Wood-Warblers","875"
"","5402","image-multi-choice","106","837841","0.0-1.0-105.0","{""Q0"":""Townsend's Warbler""}","Magnolia Warbler","Wood-Warblers","758"
"","6763","image-multi-choice","107","845615","0.0-1.0-106.0","{""Q0"":""Townsend's Warbler""}","Townsend's Warbler","Wood-Warblers","881"
"","4312","image-multi-choice","108","850936","0.0-1.0-107.0","{""Q0"":""White-throated Sparrow""}","Swamp Sparrow","New World Sparrows and Allies","904"
"","8188","image-multi-choice","109","860133","0.0-1.0-108.0","{""Q0"":""Song Sparrow""}","Fox Sparrow","New World Sparrows and Allies","901"
"","3398","image-multi-choice","110","864543","0.0-1.0-109.0","{""Q0"":""Yellow Warbler""}","Yellow Warbler","Wood-Warblers","875"
"","5749","image-multi-choice","111","871304","0.0-1.0-110.0","{""Q0"":""Vesper Sparrow""}","Lincoln's Sparrow","New World Sparrows and Allies","903"
"","13053","image-multi-choice","112","885369","0.0-1.0-111.0","{""Q0"":""Magnolia Warbler""}","Townsend's Warbler","Wood-Warblers","881"
"","3254","image-multi-choice","113","889631","0.0-1.0-112.0","{""Q0"":""White-crowned Sparrow""}","White-crowned Sparrow","New World Sparrows and Allies","766"
"","11024","image-multi-choice","114","901663","0.0-1.0-113.0","{""Q0"":""Magnolia Warbler""}","Blackburnian Warbler","Wood-Warblers","874"
"","5828","image-multi-choice","115","908502","0.0-1.0-114.0","{""Q0"":""Nashville Warbler""}","Nashville Warbler","Wood-Warblers","868"
"","4639","image-multi-choice","116","914154","0.0-1.0-115.0","{""Q0"":""Nashville Warbler""}","Tennessee Warbler","Wood-Warblers","866"
"","7138","image-multi-choice","117","922304","0.0-1.0-116.0","{""Q0"":""Fox Sparrow""}","Vesper Sparrow","New World Sparrows and Allies","898"
"","5209","image-multi-choice","118","928524","0.0-1.0-117.0","{""Q0"":""Lincoln's Sparrow""}","Swamp Sparrow","New World Sparrows and Allies","904"
"","3643","image-multi-choice","119","933179","0.0-1.0-118.0","{""Q0"":""White-crowned Sparrow""}","White-crowned Sparrow","New World Sparrows and Allies","766"
"","6864","image-multi-choice","120","953499","0.0-1.0-119.0","{""Q0"":""Black-and-white Warbler""}","Blackburnian Warbler","Wood-Warblers","874"
"","6631","image-multi-choice","121","961143","0.0-1.0-120.0","{""Q0"":""Magnolia Warbler""}","Fox Sparrow","New World Sparrows and Allies","901"
"","5918","image-multi-choice","122","968071","0.0-1.0-121.0","{""Q0"":""Lark Sparrow""}","Vesper Sparrow","New World Sparrows and Allies","898"
"","3283","image-multi-choice","123","972367","0.0-1.0-122.0","{""Q0"":""Yellow Warbler""}","Yellow Warbler","Wood-Warblers","875"
"","5594","image-multi-choice","124","978974","0.0-1.0-123.0","{""Q0"":""White-throated Sparrow""}","Song Sparrow","New World Sparrows and Allies","902"
"","14474","image-multi-choice","125","994458","0.0-1.0-124.0","{""Q0"":""Blackburnian Warbler""}","Townsend's Warbler","Wood-Warblers","881"
"","5064","image-multi-choice","126","1000532","0.0-1.0-125.0","{""Q0"":""White-crowned Sparrow""}","White-crowned Sparrow","New World Sparrows and Allies","766"
"","6553","image-multi-choice","127","1008099","0.0-1.0-126.0","{""Q0"":""Vesper Sparrow""}","Song Sparrow","New World Sparrows and Allies","902"
"","11617","image-multi-choice","128","1020727","0.0-1.0-127.0","{""Q0"":""Ovenbird""}","Ovenbird","Wood-Warblers","860"
"","8831","image-multi-choice","129","1030567","0.0-1.0-128.0","{""Q0"":""Magnolia Warbler""}","Magnolia Warbler","Wood-Warblers","758"
"","8490","image-multi-choice","130","1040069","0.0-1.0-129.0","{""Q0"":""Lincoln's Sparrow""}","Swamp Sparrow","New World Sparrows and Allies","904"
"","7808","image-multi-choice","131","1048885","0.0-1.0-130.0","{""Q0"":""Lark Sparrow""}","Lark Sparrow","New World Sparrows and Allies","899"
"","6647","image-multi-choice","132","1056543","0.0-1.0-131.0","{""Q0"":""Blackburnian Warbler""}","Magnolia Warbler","Wood-Warblers","758"
"","5655","image-multi-choice","133","1063210","0.0-1.0-132.0","{""Q0"":""Blackburnian Warbler""}","White-throated Sparrow","New World Sparrows and Allies","764"
"","10996","image-multi-choice","134","1075218","0.0-1.0-133.0","{""Q0"":""Townsend's Warbler""}","Magnolia Warbler","Wood-Warblers","758"
"","3388","image-multi-choice","135","1079618","0.0-1.0-134.0","{""Q0"":""Yellow Warbler""}","Yellow Warbler","Wood-Warblers","875"
"","5304","image-multi-choice","136","1085930","0.0-1.0-135.0","{""Q0"":""Tennessee Warbler""}","Tennessee Warbler","Wood-Warblers","866"
"","5126","image-multi-choice","137","1092068","0.0-1.0-136.0","{""Q0"":""Ovenbird""}","Ovenbird","Wood-Warblers","860"
"","9222","image-multi-choice","138","1102298","0.0-1.0-137.0","{""Q0"":""Magnolia Warbler""}","Black-and-white Warbler","Wood-Warblers","864"
"","8510","image-multi-choice","139","1111817","0.0-1.0-138.0","{""Q0"":""Lincoln's Sparrow""}","Chipping Sparrow","New World Sparrows and Allies","769"
"","4628","image-multi-choice","140","1117455","0.0-1.0-139.0","{""Q0"":""Northern Waterthrush""}","Northern Waterthrush","Wood-Warblers","862"
"","4297","image-multi-choice","141","1122765","0.0-1.0-140.0","{""Q0"":""Lincoln's Sparrow""}","Vesper Sparrow","New World Sparrows and Allies","898"
"","3203","image-multi-choice","142","1126979","0.0-1.0-141.0","{""Q0"":""White-throated Sparrow""}","White-throated Sparrow","New World Sparrows and Allies","764"
"","6616","image-multi-choice","143","1134605","0.0-1.0-142.0","{""Q0"":""Magnolia Warbler""}","Magnolia Warbler","Wood-Warblers","758"
"","4310","image-multi-choice","144","1139925","0.0-1.0-143.0","{""Q0"":""Townsend's Warbler""}","Blackburnian Warbler","Wood-Warblers","874"
"","3970","image-multi-choice","145","1144906","0.0-1.0-144.0","{""Q0"":""Lark Sparrow""}","Lark Sparrow","New World Sparrows and Allies","899"
"","4947","image-multi-choice","146","1150864","0.0-1.0-145.0","{""Q0"":""Lincoln's Sparrow""}","Song Sparrow","New World Sparrows and Allies","902"
"","3161","image-multi-choice","147","1155035","0.0-1.0-146.0","{""Q0"":""White-crowned Sparrow""}","White-crowned Sparrow","New World Sparrows and Allies","766"
"","6563","image-multi-choice","148","1162609","0.0-1.0-147.0","{""Q0"":""Swamp Sparrow""}","Chipping Sparrow","New World Sparrows and Allies","769"
"","8603","image-multi-choice","149","1172222","0.0-1.0-148.0","{""Q0"":""Swamp Sparrow""}","Swamp Sparrow","New World Sparrows and Allies","904"
"","5825","image-multi-choice","150","1179056","0.0-1.0-149.0","{""Q0"":""Song Sparrow""}","Fox Sparrow","New World Sparrows and Allies","901"
"","2874","image-multi-choice","151","1182942","0.0-1.0-150.0","{""Q0"":""Yellow Warbler""}","Yellow Warbler","Wood-Warblers","875"
"","5190","image-multi-choice","152","1189143","0.0-1.0-151.0","{""Q0"":""White-crowned Sparrow""}","White-crowned Sparrow","New World Sparrows and Allies","766"
"","8191","image-multi-choice","153","1198346","0.0-1.0-152.0","{""Q0"":""American Tree Sparrow""}","Song Sparrow","New World Sparrows and Allies","902"
"","7663","image-multi-choice","154","1207020","0.0-1.0-153.0","{""Q0"":""Northern Waterthrush""}","Northern Waterthrush","Wood-Warblers","862"
"","4065","image-multi-choice","155","1212096","0.0-1.0-154.0","{""Q0"":""White-crowned Sparrow""}","White-crowned Sparrow","New World Sparrows and Allies","766"
"","3411","image-multi-choice","156","1216519","0.0-1.0-155.0","{""Q0"":""Yellow Warbler""}","Yellow Warbler","Wood-Warblers","875"
"","3685","image-multi-choice","157","1221215","0.0-1.0-156.0","{""Q0"":""White-throated Sparrow""}","White-throated Sparrow","New World Sparrows and Allies","764"
"","3308","image-multi-choice","158","1225535","0.0-1.0-157.0","{""Q0"":""White-crowned Sparrow""}","White-crowned Sparrow","New World Sparrows and Allies","766"
"","6021","image-multi-choice","159","1232565","0.0-1.0-158.0","{""Q0"":""Magnolia Warbler""}","Townsend's Warbler","Wood-Warblers","881"
"","4194","image-multi-choice","160","1237767","0.0-1.0-159.0","{""Q0"":""Orange-crowned Warbler""}","Tennessee Warbler","Wood-Warblers","866"
"","2963","image-multi-choice","161","1241739","0.0-1.0-160.0","{""Q0"":""White-throated Sparrow""}","White-throated Sparrow","New World Sparrows and Allies","764"
"","7829","image-multi-choice","162","1250578","0.0-1.0-161.0","{""Q0"":""Song Sparrow""}","Fox Sparrow","New World Sparrows and Allies","901"
"","5045","image-multi-choice","163","1256631","0.0-1.0-162.0","{""Q0"":""Fox Sparrow""}","Song Sparrow","New World Sparrows and Allies","902"
"","3157","image-multi-choice","164","1260799","0.0-1.0-163.0","{""Q0"":""White-crowned Sparrow""}","White-crowned Sparrow","New World Sparrows and Allies","766"
"","6785","image-multi-choice","165","1268593","0.0-1.0-164.0","{""Q0"":""Vesper Sparrow""}","Song Sparrow","New World Sparrows and Allies","902"
"","8817","image-multi-choice","166","1278425","0.0-1.0-165.0","{""Q0"":""Chipping Sparrow""}","American Tree Sparrow","New World Sparrows and Allies","894"
"","4466","image-multi-choice","167","1283903","0.0-1.0-166.0","{""Q0"":""Orange-crowned Warbler""}","Orange-crowned Warbler","Wood-Warblers","867"
"","5039","image-multi-choice","168","1289951","0.0-1.0-167.0","{""Q0"":""Lincoln's Sparrow""}","Lincoln's Sparrow","New World Sparrows and Allies","903"
"","6639","image-multi-choice","169","1297602","0.0-1.0-168.0","{""Q0"":""Black-and-white Warbler""}","Blackburnian Warbler","Wood-Warblers","874"
"","3195","image-multi-choice","170","1301806","0.0-1.0-169.0","{""Q0"":""White-throated Sparrow""}","White-throated Sparrow","New World Sparrows and Allies","764"
"","5864","image-multi-choice","171","1308678","0.0-1.0-170.0","{""Q0"":""Fox Sparrow""}","Fox Sparrow","New World Sparrows and Allies","901"
"","7715","image-multi-choice","172","1317402","0.0-1.0-171.0","{""Q0"":""Chipping Sparrow""}","Chipping Sparrow","New World Sparrows and Allies","769"
"","5650","image-multi-choice","173","1324064","0.0-1.0-172.0","{""Q0"":""Chipping Sparrow""}","Swamp Sparrow","New World Sparrows and Allies","904"
"","5994","image-multi-choice","174","1331067","0.0-1.0-173.0","{""Q0"":""Lincoln's Sparrow""}","Lincoln's Sparrow","New World Sparrows and Allies","903"
"","3996","image-multi-choice","175","1336072","0.0-1.0-174.0","{""Q0"":""Lincoln's Sparrow""}","Swamp Sparrow","New World Sparrows and Allies","904"
"","7223","image-multi-choice","176","1344303","0.0-1.0-175.0","{""Q0"":""Magnolia Warbler""}","Townsend's Warbler","Wood-Warblers","881"
"","6054","image-multi-choice","177","1351365","0.0-1.0-176.0","{""Q0"":""Vesper Sparrow""}","American Tree Sparrow","New World Sparrows and Allies","894"
"","4154","image-multi-choice","178","1356529","0.0-1.0-177.0","{""Q0"":""Ovenbird""}","Fox Sparrow","New World Sparrows and Allies","901"
"","7486","image-multi-choice","179","1365026","0.0-1.0-178.0","{""Q0"":""Lincoln's Sparrow""}","Lincoln's Sparrow","New World Sparrows and Allies","903"
"","7717","image-multi-choice","180","1383007","0.0-1.0-179.0","{""Q0"":""Magnolia Warbler""}","Magnolia Warbler","Wood-Warblers","758"
"","4790","image-multi-choice","181","1388806","0.0-1.0-180.0","{""Q0"":""Orange-crowned Warbler""}","Orange-crowned Warbler","Wood-Warblers","867"
"","5418","image-multi-choice","182","1395236","0.0-1.0-181.0","{""Q0"":""Nashville Warbler""}","Tennessee Warbler","Wood-Warblers","866"
"","5538","image-multi-choice","183","1401785","0.0-1.0-182.0","{""Q0"":""American Tree Sparrow""}","Vesper Sparrow","New World Sparrows and Allies","898"
"","8408","image-multi-choice","184","1411204","0.0-1.0-183.0","{""Q0"":""Magnolia Warbler""}","Blackburnian Warbler","Wood-Warblers","874"
"","11667","image-multi-choice","185","1423880","0.0-1.0-184.0","{""Q0"":""Swamp Sparrow""}","Lincoln's Sparrow","New World Sparrows and Allies","903"
"","6326","image-multi-choice","186","1431216","0.0-1.0-185.0","{""Q0"":""Townsend's Warbler""}","Townsend's Warbler","Wood-Warblers","881"
"","4940","image-multi-choice","187","1437167","0.0-1.0-186.0","{""Q0"":""Ovenbird""}","Ovenbird","Wood-Warblers","860"
"","2768","image-multi-choice","188","1440943","0.0-1.0-187.0","{""Q0"":""Yellow Warbler""}","Orange-crowned Warbler","Wood-Warblers","867"
"","10377","image-multi-choice","189","1452331","0.0-1.0-188.0","{""Q0"":""Magnolia Warbler""}","Chipping Sparrow","New World Sparrows and Allies","769"
"","6381","image-multi-choice","190","1459722","0.0-1.0-189.0","{""Q0"":""Lincoln's Sparrow""}","American Tree Sparrow","New World Sparrows and Allies","894"
"","11385","image-multi-choice","191","1472118","0.0-1.0-190.0","{""Q0"":""Chipping Sparrow""}","Vesper Sparrow","New World Sparrows and Allies","898"
"","11438","image-multi-choice","192","1484569","0.0-1.0-191.0","{""Q0"":""Swamp Sparrow""}","Lincoln's Sparrow","New World Sparrows and Allies","903"
"","5838","image-multi-choice","193","1491418","0.0-1.0-192.0","{""Q0"":""Vesper Sparrow""}","Tennessee Warbler","Wood-Warblers","866"
"","4398","image-multi-choice","194","1496828","0.0-1.0-193.0","{""Q0"":""Lincoln's Sparrow""}","American Tree Sparrow","New World Sparrows and Allies","894"
"","5598","image-multi-choice","195","1503437","0.0-1.0-194.0","{""Q0"":""White-crowned Sparrow""}","Lark Sparrow","New World Sparrows and Allies","899"
"","5374","image-multi-choice","196","1509823","0.0-1.0-195.0","{""Q0"":""Tennessee Warbler""}","Tennessee Warbler","Wood-Warblers","866"
"","4852","image-multi-choice","197","1515684","0.0-1.0-196.0","{""Q0"":""Northern Waterthrush""}","Northern Waterthrush","Wood-Warblers","862"
"","4735","image-multi-choice","198","1521429","0.0-1.0-197.0","{""Q0"":""White-throated Sparrow""}","White-throated Sparrow","New World Sparrows and Allies","764"
"","2599","image-multi-choice","199","1525038","0.0-1.0-198.0","{""Q0"":""Yellow Warbler""}","Yellow Warbler","Wood-Warblers","875"
"","4290","image-multi-choice","200","1530340","0.0-1.0-199.0","{""Q0"":""White-crowned Sparrow""}","White-crowned Sparrow","New World Sparrows and Allies","766"
"","5869","image-multi-choice","201","1537221","0.0-1.0-200.0","{""Q0"":""Chipping Sparrow""}","American Tree Sparrow","New World Sparrows and Allies","894"
"","5642","image-multi-choice","202","1543871","0.0-1.0-201.0","{""Q0"":""Ovenbird""}","Ovenbird","Wood-Warblers","860"
"","7583","image-multi-choice","203","1552467","0.0-1.0-202.0","{""Q0"":""Black-and-white Warbler""}","Magnolia Warbler","Wood-Warblers","758"
"","6369","image-multi-choice","204","1559846","0.0-1.0-203.0","{""Q0"":""Black-and-white Warbler""}","Black-and-white Warbler","Wood-Warblers","864"
"","6539","image-multi-choice","205","1567396","0.0-1.0-204.0","{""Q0"":""Northern Waterthrush""}","Northern Waterthrush","Wood-Warblers","862"
"","6911","image-multi-choice","206","1575320","0.0-1.0-205.0","{""Q0"":""Lincoln's Sparrow""}","American Tree Sparrow","New World Sparrows and Allies","894"
"","6012","image-multi-choice","207","1582342","0.0-1.0-206.0","{""Q0"":""Townsend's Warbler""}","Magnolia Warbler","Wood-Warblers","758"
"","7577","image-multi-choice","208","1590929","0.0-1.0-207.0","{""Q0"":""Magnolia Warbler""}","Blackburnian Warbler","Wood-Warblers","874"
"","6972","image-multi-choice","209","1598914","0.0-1.0-208.0","{""Q0"":""Lincoln's Sparrow""}","Swamp Sparrow","New World Sparrows and Allies","904"
"","6563","image-multi-choice","210","1606486","0.0-1.0-209.0","{""Q0"":""Vesper Sparrow""}","American Tree Sparrow","New World Sparrows and Allies","894"
"","5717","image-multi-choice","211","1613214","0.0-1.0-210.0","{""Q0"":""Ovenbird""}","Ovenbird","Wood-Warblers","860"
"","6831","image-multi-choice","212","1621057","0.0-1.0-211.0","{""Q0"":""Lincoln's Sparrow""}","Swamp Sparrow","New World Sparrows and Allies","904"
"","6277","image-multi-choice","213","1628346","0.0-1.0-212.0","{""Q0"":""Song Sparrow""}","Song Sparrow","New World Sparrows and Allies","902"
"","5997","image-multi-choice","214","1635355","0.0-1.0-213.0","{""Q0"":""Black-and-white Warbler""}","Blackburnian Warbler","Wood-Warblers","874"
"","7256","image-multi-choice","215","1643621","0.0-1.0-214.0","{""Q0"":""Swamp Sparrow""}","Vesper Sparrow","New World Sparrows and Allies","898"
"","6850","image-multi-choice","216","1651483","0.0-1.0-215.0","{""Q0"":""Black-and-white Warbler""}","Blackburnian Warbler","Wood-Warblers","874"
"","7936","image-multi-choice","217","1660427","0.0-1.0-216.0","{""Q0"":""Lincoln's Sparrow""}","Song Sparrow","New World Sparrows and Allies","902"
"","5030","image-multi-choice","218","1666468","0.0-1.0-217.0","{""Q0"":""Tennessee Warbler""}","Tennessee Warbler","Wood-Warblers","866"
"","8057","image-multi-choice","219","1675538","0.0-1.0-218.0","{""Q0"":""Townsend's Warbler""}","Black-and-white Warbler","Wood-Warblers","864"
"","9346","image-multi-choice","220","1685893","0.0-1.0-219.0","{""Q0"":""Swamp Sparrow""}","Ovenbird","Wood-Warblers","860"
"","3219","image-multi-choice","221","1690123","0.0-1.0-220.0","{""Q0"":""White-throated Sparrow""}","White-throated Sparrow","New World Sparrows and Allies","764"
"","5885","image-multi-choice","222","1697019","0.0-1.0-221.0","{""Q0"":""Chipping Sparrow""}","Vesper Sparrow","New World Sparrows and Allies","898"
"","5195","image-multi-choice","223","1703225","0.0-1.0-222.0","{""Q0"":""Swamp Sparrow""}","American Tree Sparrow","New World Sparrows and Allies","894"
"","2984","image-multi-choice","224","1707220","0.0-1.0-223.0","{""Q0"":""Yellow Warbler""}","Yellow Warbler","Wood-Warblers","875"
"","4777","image-multi-choice","225","1713009","0.0-1.0-224.0","{""Q0"":""Northern Waterthrush""}","Northern Waterthrush","Wood-Warblers","862"
"","5051","image-multi-choice","226","1719070","0.0-1.0-225.0","{""Q0"":""Black-and-white Warbler""}","Blackburnian Warbler","Wood-Warblers","874"
"","3414","image-multi-choice","227","1723496","0.0-1.0-226.0","{""Q0"":""White-throated Sparrow""}","White-throated Sparrow","New World Sparrows and Allies","764"
"","8489","image-multi-choice","228","1732995","0.0-1.0-227.0","{""Q0"":""Lark Sparrow""}","Song Sparrow","New World Sparrows and Allies","902"
"","5467","image-multi-choice","229","1739473","0.0-1.0-228.0","{""Q0"":""Ovenbird""}","Ovenbird","Wood-Warblers","860"
"","6779","image-multi-choice","230","1747263","0.0-1.0-229.0","{""Q0"":""Black-and-white Warbler""}","Townsend's Warbler","Wood-Warblers","881"
"","4540","image-multi-choice","231","1752816","0.0-1.0-230.0","{""Q0"":""Nashville Warbler""}","Nashville Warbler","Wood-Warblers","868"
"","7185","image-multi-choice","232","1761008","0.0-1.0-231.0","{""Q0"":""Song Sparrow""}","Fox Sparrow","New World Sparrows and Allies","901"
"","6911","image-multi-choice","233","1768929","0.0-1.0-232.0","{""Q0"":""Ovenbird""}","Ovenbird","Wood-Warblers","860"
"","5184","image-multi-choice","234","1775126","0.0-1.0-233.0","{""Q0"":""Black-and-white Warbler""}","Magnolia Warbler","Wood-Warblers","758"
"","6151","image-multi-choice","235","1782289","0.0-1.0-234.0","{""Q0"":""American Tree Sparrow""}","American Tree Sparrow","New World Sparrows and Allies","894"
"","6341","image-multi-choice","236","1789641","0.0-1.0-235.0","{""Q0"":""Black-and-white Warbler""}","Blackburnian Warbler","Wood-Warblers","874"
"","6544","image-multi-choice","237","1797197","0.0-1.0-236.0","{""Q0"":""Chipping Sparrow""}","Chipping Sparrow","New World Sparrows and Allies","769"
"","4743","image-multi-choice","238","1802952","0.0-1.0-237.0","{""Q0"":""Ovenbird""}","Fox Sparrow","New World Sparrows and Allies","901"
"","4773","image-multi-choice","239","1808735","0.0-1.0-238.0","{""Q0"":""Lark Sparrow""}","Vesper Sparrow","New World Sparrows and Allies","898"
"","6876","image-multi-choice","240","1830373","0.0-1.0-239.0","{""Q0"":""Northern Waterthrush""}","Northern Waterthrush","Wood-Warblers","862"
"","4276","image-multi-choice","241","1835658","0.0-1.0-240.0","{""Q0"":""Lark Sparrow""}","Lark Sparrow","New World Sparrows and Allies","899"
"","5522","image-multi-choice","242","1842191","0.0-1.0-241.0","{""Q0"":""Tennessee Warbler""}","Nashville Warbler","Wood-Warblers","868"
"","4589","image-multi-choice","243","1847793","0.0-1.0-242.0","{""Q0"":""Ovenbird""}","Ovenbird","Wood-Warblers","860"
"","8435","image-multi-choice","244","1857238","0.0-1.0-243.0","{""Q0"":""Fox Sparrow""}","Northern Waterthrush","Wood-Warblers","862"
"","6548","image-multi-choice","245","1864795","0.0-1.0-244.0","{""Q0"":""Orange-crowned Warbler""}","Orange-crowned Warbler","Wood-Warblers","867"
"","4909","image-multi-choice","246","1870712","0.0-1.0-245.0","{""Q0"":""Lark Sparrow""}","Chipping Sparrow","New World Sparrows and Allies","769"
"","4275","image-multi-choice","247","1875996","0.0-1.0-246.0","{""Q0"":""Orange-crowned Warbler""}","Tennessee Warbler","Wood-Warblers","866"
"","4258","image-multi-choice","248","1881262","0.0-1.0-247.0","{""Q0"":""Yellow Warbler""}","Yellow Warbler","Wood-Warblers","875"
"","5153","image-multi-choice","249","1887422","0.0-1.0-248.0","{""Q0"":""Lincoln's Sparrow""}","Lincoln's Sparrow","New World Sparrows and Allies","903"
"","6786","image-multi-choice","250","1895218","0.0-1.0-249.0","{""Q0"":""Vesper Sparrow""}","Vesper Sparrow","New World Sparrows and Allies","898"
"","5077","image-multi-choice","251","1901305","0.0-1.0-250.0","{""Q0"":""Black-and-white Warbler""}","Black-and-white Warbler","Wood-Warblers","864"
"","7810","image-multi-choice","252","1910125","0.0-1.0-251.0","{""Q0"":""Swamp Sparrow""}","Song Sparrow","New World Sparrows and Allies","902"
"","7893","image-multi-choice","253","1919029","0.0-1.0-252.0","{""Q0"":""Swamp Sparrow""}","Chipping Sparrow","New World Sparrows and Allies","769"
"","4199","image-multi-choice","254","1924237","0.0-1.0-253.0","{""Q0"":""Black-and-white Warbler""}","Magnolia Warbler","Wood-Warblers","758"
"","5261","image-multi-choice","255","1930508","0.0-1.0-254.0","{""Q0"":""Lincoln's Sparrow""}","Lincoln's Sparrow","New World Sparrows and Allies","903"
"","3383","image-multi-choice","256","1934903","0.0-1.0-255.0","{""Q0"":""White-throated Sparrow""}","White-throated Sparrow","New World Sparrows and Allies","764"
"","5581","image-multi-choice","257","1941495","0.0-1.0-256.0","{""Q0"":""Fox Sparrow""}","Fox Sparrow","New World Sparrows and Allies","901"
"","9328","image-multi-choice","258","1951835","0.0-1.0-257.0","{""Q0"":""Magnolia Warbler""}","Black-and-white Warbler","Wood-Warblers","864"
"","7469","image-multi-choice","259","1960315","0.0-1.0-258.0","{""Q0"":""American Tree Sparrow""}","Chipping Sparrow","New World Sparrows and Allies","769"
"","5494","image-multi-choice","260","1966819","0.0-1.0-259.0","{""Q0"":""Nashville Warbler""}","Orange-crowned Warbler","Wood-Warblers","867"
"","5642","image-multi-choice","261","1973471","0.0-1.0-260.0","{""Q0"":""Lark Sparrow""}","Lark Sparrow","New World Sparrows and Allies","899"
"","4325","image-multi-choice","262","1978805","0.0-1.0-261.0","{""Q0"":""Lincoln's Sparrow""}","Lincoln's Sparrow","New World Sparrows and Allies","903"
"","4454","image-multi-choice","263","1984267","0.0-1.0-262.0","{""Q0"":""Northern Waterthrush""}","Northern Waterthrush","Wood-Warblers","862"
"","3846","image-multi-choice","264","1989125","0.0-1.0-263.0","{""Q0"":""Tennessee Warbler""}","Nashville Warbler","Wood-Warblers","868"
"","3481","image-multi-choice","265","1993616","0.0-1.0-264.0","{""Q0"":""Lark Sparrow""}","Lark Sparrow","New World Sparrows and Allies","899"
"","4374","image-multi-choice","266","1999001","0.0-1.0-265.0","{""Q0"":""Nashville Warbler""}","Orange-crowned Warbler","Wood-Warblers","867"
"","12476","image-multi-choice","267","2012489","0.0-1.0-266.0","{""Q0"":""Blackburnian Warbler""}","Magnolia Warbler","Wood-Warblers","758"
"","3533","image-multi-choice","268","2017033","0.0-1.0-267.0","{""Q0"":""Yellow Warbler""}","Orange-crowned Warbler","Wood-Warblers","867"
"","6781","image-multi-choice","269","2024823","0.0-1.0-268.0","{""Q0"":""Yellow Warbler""}","Yellow Warbler","Wood-Warblers","875"
"","4275","image-multi-choice","270","2030109","0.0-1.0-269.0","{""Q0"":""Orange-crowned Warbler""}","Orange-crowned Warbler","Wood-Warblers","867"
"","7369","image-multi-choice","271","2038487","0.0-1.0-270.0","{""Q0"":""Lincoln's Sparrow""}","Lincoln's Sparrow","New World Sparrows and Allies","903"
"","4892","image-multi-choice","272","2044391","0.0-1.0-271.0","{""Q0"":""Lark Sparrow""}","Lark Sparrow","New World Sparrows and Allies","899"
"","5581","image-multi-choice","273","2050984","0.0-1.0-272.0","{""Q0"":""Chipping Sparrow""}","Lincoln's Sparrow","New World Sparrows and Allies","903"
"","3728","image-multi-choice","274","2055720","0.0-1.0-273.0","{""Q0"":""Orange-crowned Warbler""}","Nashville Warbler","Wood-Warblers","868"
"","3584","image-multi-choice","275","2060316","0.0-1.0-274.0","{""Q0"":""Lark Sparrow""}","Lark Sparrow","New World Sparrows and Allies","899"
"","7134","image-multi-choice","276","2068459","0.0-1.0-275.0","{""Q0"":""Vesper Sparrow""}","Chipping Sparrow","New World Sparrows and Allies","769"
"","3460","image-multi-choice","277","2072931","0.0-1.0-276.0","{""Q0"":""White-throated Sparrow""}","White-throated Sparrow","New World Sparrows and Allies","764"
"","5399","image-multi-choice","278","2079338","0.0-1.0-277.0","{""Q0"":""Chipping Sparrow""}","Song Sparrow","New World Sparrows and Allies","902"
"","3485","image-multi-choice","279","2083835","0.0-1.0-278.0","{""Q0"":""Ovenbird""}","Ovenbird","Wood-Warblers","860"
"","4139","image-multi-choice","280","2088985","0.0-1.0-279.0","{""Q0"":""White-throated Sparrow""}","Lark Sparrow","New World Sparrows and Allies","899"
"","7016","image-multi-choice","281","2097010","0.0-1.0-280.0","{""Q0"":""American Tree Sparrow""}","Chipping Sparrow","New World Sparrows and Allies","769"
"","6231","image-multi-choice","282","2104251","0.0-1.0-281.0","{""Q0"":""American Tree Sparrow""}","Lark Sparrow","New World Sparrows and Allies","899"
"","3653","image-multi-choice","283","2108914","0.0-1.0-282.0","{""Q0"":""White-throated Sparrow""}","Song Sparrow","New World Sparrows and Allies","902"
"","3206","image-multi-choice","284","2113129","0.0-1.0-283.0","{""Q0"":""White-throated Sparrow""}","White-throated Sparrow","New World Sparrows and Allies","764"
"","5015","image-multi-choice","285","2119154","0.0-1.0-284.0","{""Q0"":""Black-and-white Warbler""}","Magnolia Warbler","Wood-Warblers","758"
"","5383","image-multi-choice","286","2125548","0.0-1.0-285.0","{""Q0"":""Orange-crowned Warbler""}","Orange-crowned Warbler","Wood-Warblers","867"
"","9003","image-multi-choice","287","2135560","0.0-1.0-286.0","{""Q0"":""Chipping Sparrow""}","Lincoln's Sparrow","New World Sparrows and Allies","903"
"","7997","image-multi-choice","288","2144569","0.0-1.0-287.0","{""Q0"":""White-throated Sparrow""}","Lark Sparrow","New World Sparrows and Allies","899"
"","5839","image-multi-choice","289","2151421","0.0-1.0-288.0","{""Q0"":""Swamp Sparrow""}","Townsend's Warbler","Wood-Warblers","881"
"","6126","image-multi-choice","290","2158559","0.0-1.0-289.0","{""Q0"":""Black-and-white Warbler""}","Black-and-white Warbler","Wood-Warblers","864"
"","5915","image-multi-choice","291","2165485","0.0-1.0-290.0","{""Q0"":""Nashville Warbler""}","Tennessee Warbler","Wood-Warblers","866"
"","8453","image-multi-choice","292","2174949","0.0-1.0-291.0","{""Q0"":""Magnolia Warbler""}","American Tree Sparrow","New World Sparrows and Allies","894"
"","4671","image-multi-choice","293","2180632","0.0-1.0-292.0","{""Q0"":""Magnolia Warbler""}","Chipping Sparrow","New World Sparrows and Allies","769"
"","3793","image-multi-choice","294","2185434","0.0-1.0-293.0","{""Q0"":""Lark Sparrow""}","Lark Sparrow","New World Sparrows and Allies","899"
"","6621","image-multi-choice","295","2193066","0.0-1.0-294.0","{""Q0"":""Magnolia Warbler""}","Magnolia Warbler","Wood-Warblers","758"
"","3175","image-multi-choice","296","2197251","0.0-1.0-295.0","{""Q0"":""Yellow Warbler""}","Yellow Warbler","Wood-Warblers","875"
"","3143","image-multi-choice","297","2201402","0.0-1.0-296.0","{""Q0"":""White-crowned Sparrow""}","White-crowned Sparrow","New World Sparrows and Allies","766"
"","4170","image-multi-choice","298","2206582","0.0-1.0-297.0","{""Q0"":""Swamp Sparrow""}","Swamp Sparrow","New World Sparrows and Allies","904"
"","4707","image-multi-choice","299","2212298","0.0-1.0-298.0","{""Q0"":""Tennessee Warbler""}","Orange-crowned Warbler","Wood-Warblers","867"
"","4643","image-multi-choice","300","2224286","0.0-1.0-299.0","{""Q0"":""Lincoln's Sparrow""}","Vesper Sparrow","New World Sparrows and Allies","898"
"[{""page_index"":0,""viewing_time"":3116}]","3116","instructions","301","2228404","0.0-2.0","","","",""
