"view_history","rt","trial_type","trial_index","time_elapsed","internal_node_id","responses","bird","family","class"
"[{""page_index"":0,""viewing_time"":47615}]","47617","instructions","0","47618","0.0-0.0","","","",""
"","12232","image-multi-choice","1","60907","0.0-1.0-0.0","{""Q0"":""Black-and-white Warbler""}","Townsend's Warbler","Wood-Warblers","881"
"","5081","image-multi-choice","2","67031","0.0-1.0-1.0","{""Q0"":""Lark Sparrow""}","Lark Sparrow","New World Sparrows and Allies","899"
"","7018","image-multi-choice","3","75080","0.0-1.0-2.0","{""Q0"":""White-crowned Sparrow""}","White-crowned Sparrow","New World Sparrows and Allies","766"
"","21320","image-multi-choice","4","97438","0.0-1.0-3.0","{""Q0"":""Lark Sparrow""}","Lark Sparrow","New World Sparrows and Allies","899"
"","3585","image-multi-choice","5","102070","0.0-1.0-4.0","{""Q0"":""White-throated Sparrow""}","White-throated Sparrow","New World Sparrows and Allies","764"
"","3866","image-multi-choice","6","106964","0.0-1.0-5.0","{""Q0"":""White-crowned Sparrow""}","White-crowned Sparrow","New World Sparrows and Allies","766"
"","20322","image-multi-choice","7","128318","0.0-1.0-6.0","{""Q0"":""Nashville Warbler""}","Tennessee Warbler","Wood-Warblers","866"
"","3977","image-multi-choice","8","133332","0.0-1.0-7.0","{""Q0"":""White-crowned Sparrow""}","White-crowned Sparrow","New World Sparrows and Allies","766"
"","2997","image-multi-choice","9","137356","0.0-1.0-8.0","{""Q0"":""Yellow Warbler""}","Orange-crowned Warbler","Wood-Warblers","867"
"","5215","image-multi-choice","10","143590","0.0-1.0-9.0","{""Q0"":""American Tree Sparrow""}","Swamp Sparrow","New World Sparrows and Allies","904"
"","4850","image-multi-choice","11","149470","0.0-1.0-10.0","{""Q0"":""Orange-crowned Warbler""}","Orange-crowned Warbler","Wood-Warblers","867"
"","2983","image-multi-choice","12","153483","0.0-1.0-11.0","{""Q0"":""White-crowned Sparrow""}","White-crowned Sparrow","New World Sparrows and Allies","766"
"","3741","image-multi-choice","13","158249","0.0-1.0-12.0","{""Q0"":""Black-and-white Warbler""}","Townsend's Warbler","Wood-Warblers","881"
"","5255","image-multi-choice","14","164546","0.0-1.0-13.0","{""Q0"":""Lincoln's Sparrow""}","Lincoln's Sparrow","New World Sparrows and Allies","903"
"","3214","image-multi-choice","15","168793","0.0-1.0-14.0","{""Q0"":""Ovenbird""}","Ovenbird","Wood-Warblers","860"
"","7456","image-multi-choice","16","177275","0.0-1.0-15.0","{""Q0"":""Tennessee Warbler""}","Tennessee Warbler","Wood-Warblers","866"
"","3609","image-multi-choice","17","181913","0.0-1.0-16.0","{""Q0"":""Vesper Sparrow""}","Vesper Sparrow","New World Sparrows and Allies","898"
"","6014","image-multi-choice","18","188965","0.0-1.0-17.0","{""Q0"":""Orange-crowned Warbler""}","Tennessee Warbler","Wood-Warblers","866"
"","4958","image-multi-choice","19","194951","0.0-1.0-18.0","{""Q0"":""Lincoln's Sparrow""}","Vesper Sparrow","New World Sparrows and Allies","898"
"","4418","image-multi-choice","20","200409","0.0-1.0-19.0","{""Q0"":""Fox Sparrow""}","Song Sparrow","New World Sparrows and Allies","902"
"","8143","image-multi-choice","21","209580","0.0-1.0-20.0","{""Q0"":""Black-and-white Warbler""}","Magnolia Warbler","Wood-Warblers","758"
"","4412","image-multi-choice","22","215019","0.0-1.0-21.0","{""Q0"":""Orange-crowned Warbler""}","Orange-crowned Warbler","Wood-Warblers","867"
"","7405","image-multi-choice","23","223452","0.0-1.0-22.0","{""Q0"":""Townsend's Warbler""}","Townsend's Warbler","Wood-Warblers","881"
"","13703","image-multi-choice","24","238191","0.0-1.0-23.0","{""Q0"":""Ovenbird""}","Ovenbird","Wood-Warblers","860"
"","3674","image-multi-choice","25","242894","0.0-1.0-24.0","{""Q0"":""Lincoln's Sparrow""}","Lincoln's Sparrow","New World Sparrows and Allies","903"
"","2765","image-multi-choice","26","246702","0.0-1.0-25.0","{""Q0"":""White-throated Sparrow""}","White-throated Sparrow","New World Sparrows and Allies","764"
"","3058","image-multi-choice","27","250791","0.0-1.0-26.0","{""Q0"":""Ovenbird""}","Ovenbird","Wood-Warblers","860"
"","14697","image-multi-choice","28","266520","0.0-1.0-27.0","{""Q0"":""White-crowned Sparrow""}","Chipping Sparrow","New World Sparrows and Allies","769"
"","3874","image-multi-choice","29","271427","0.0-1.0-28.0","{""Q0"":""Fox Sparrow""}","Fox Sparrow","New World Sparrows and Allies","901"
"","8035","image-multi-choice","30","280498","0.0-1.0-29.0","{""Q0"":""Blackburnian Warbler""}","Magnolia Warbler","Wood-Warblers","758"
"","9657","image-multi-choice","31","291194","0.0-1.0-30.0","{""Q0"":""Northern Waterthrush""}","Northern Waterthrush","Wood-Warblers","862"
"","13849","image-multi-choice","32","306085","0.0-1.0-31.0","{""Q0"":""Nashville Warbler""}","Tennessee Warbler","Wood-Warblers","866"
"","5217","image-multi-choice","33","312333","0.0-1.0-32.0","{""Q0"":""Magnolia Warbler""}","Magnolia Warbler","Wood-Warblers","758"
"","5158","image-multi-choice","34","318526","0.0-1.0-33.0","{""Q0"":""Song Sparrow""}","Song Sparrow","New World Sparrows and Allies","902"
"","4619","image-multi-choice","35","324182","0.0-1.0-34.0","{""Q0"":""Lark Sparrow""}","Lark Sparrow","New World Sparrows and Allies","899"
"","6320","image-multi-choice","36","331543","0.0-1.0-35.0","{""Q0"":""Orange-crowned Warbler""}","Nashville Warbler","Wood-Warblers","868"
"","3565","image-multi-choice","37","336142","0.0-1.0-36.0","{""Q0"":""Northern Waterthrush""}","Northern Waterthrush","Wood-Warblers","862"
"","3642","image-multi-choice","38","340811","0.0-1.0-37.0","{""Q0"":""American Tree Sparrow""}","Chipping Sparrow","New World Sparrows and Allies","769"
"","3840","image-multi-choice","39","345692","0.0-1.0-38.0","{""Q0"":""Yellow Warbler""}","Yellow Warbler","Wood-Warblers","875"
"","7885","image-multi-choice","40","354612","0.0-1.0-39.0","{""Q0"":""Ovenbird""}","Ovenbird","Wood-Warblers","860"
"","3989","image-multi-choice","41","359628","0.0-1.0-40.0","{""Q0"":""Black-and-white Warbler""}","Black-and-white Warbler","Wood-Warblers","864"
"","4191","image-multi-choice","42","364845","0.0-1.0-41.0","{""Q0"":""Tennessee Warbler""}","Tennessee Warbler","Wood-Warblers","866"
"","7712","image-multi-choice","43","373587","0.0-1.0-42.0","{""Q0"":""Vesper Sparrow""}","Song Sparrow","New World Sparrows and Allies","902"
"","5698","image-multi-choice","44","380303","0.0-1.0-43.0","{""Q0"":""Blackburnian Warbler""}","Blackburnian Warbler","Wood-Warblers","874"
"","4234","image-multi-choice","45","385567","0.0-1.0-44.0","{""Q0"":""Black-and-white Warbler""}","Black-and-white Warbler","Wood-Warblers","864"
"","4028","image-multi-choice","46","390633","0.0-1.0-45.0","{""Q0"":""Magnolia Warbler""}","Magnolia Warbler","Wood-Warblers","758"
"","3283","image-multi-choice","47","394942","0.0-1.0-46.0","{""Q0"":""Ovenbird""}","Ovenbird","Wood-Warblers","860"
"","4256","image-multi-choice","48","400226","0.0-1.0-47.0","{""Q0"":""Vesper Sparrow""}","Vesper Sparrow","New World Sparrows and Allies","898"
"","3236","image-multi-choice","49","404490","0.0-1.0-48.0","{""Q0"":""White-crowned Sparrow""}","Lark Sparrow","New World Sparrows and Allies","899"
"","3703","image-multi-choice","50","409226","0.0-1.0-49.0","{""Q0"":""Black-and-white Warbler""}","Black-and-white Warbler","Wood-Warblers","864"
"","7144","image-multi-choice","51","417403","0.0-1.0-50.0","{""Q0"":""Blackburnian Warbler""}","Townsend's Warbler","Wood-Warblers","881"
"","6870","image-multi-choice","52","425300","0.0-1.0-51.0","{""Q0"":""Orange-crowned Warbler""}","Nashville Warbler","Wood-Warblers","868"
"","5468","image-multi-choice","53","431796","0.0-1.0-52.0","{""Q0"":""Chipping Sparrow""}","Chipping Sparrow","New World Sparrows and Allies","769"
"","5351","image-multi-choice","54","438172","0.0-1.0-53.0","{""Q0"":""Vesper Sparrow""}","Swamp Sparrow","New World Sparrows and Allies","904"
"","4934","image-multi-choice","55","444134","0.0-1.0-54.0","{""Q0"":""White-crowned Sparrow""}","White-crowned Sparrow","New World Sparrows and Allies","766"
"","3961","image-multi-choice","56","449123","0.0-1.0-55.0","{""Q0"":""Black-and-white Warbler""}","Black-and-white Warbler","Wood-Warblers","864"
"","3256","image-multi-choice","57","453421","0.0-1.0-56.0","{""Q0"":""Tennessee Warbler""}","Tennessee Warbler","Wood-Warblers","866"
"","6531","image-multi-choice","58","460981","0.0-1.0-57.0","{""Q0"":""Magnolia Warbler""}","Townsend's Warbler","Wood-Warblers","881"
"","7328","image-multi-choice","59","469334","0.0-1.0-58.0","{""Q0"":""Orange-crowned Warbler""}","Nashville Warbler","Wood-Warblers","868"
"","3894","image-multi-choice","60","482527","0.0-1.0-59.0","{""Q0"":""Lincoln's Sparrow""}","Lincoln's Sparrow","New World Sparrows and Allies","903"
"","6254","image-multi-choice","61","489825","0.0-1.0-60.0","{""Q0"":""Song Sparrow""}","Song Sparrow","New World Sparrows and Allies","902"
"","2878","image-multi-choice","62","493729","0.0-1.0-61.0","{""Q0"":""Yellow Warbler""}","Yellow Warbler","Wood-Warblers","875"
"","3092","image-multi-choice","63","497857","0.0-1.0-62.0","{""Q0"":""White-crowned Sparrow""}","White-throated Sparrow","New World Sparrows and Allies","764"
"","2894","image-multi-choice","64","501793","0.0-1.0-63.0","{""Q0"":""Tennessee Warbler""}","Tennessee Warbler","Wood-Warblers","866"
"","6607","image-multi-choice","65","509435","0.0-1.0-64.0","{""Q0"":""Lincoln's Sparrow""}","Lincoln's Sparrow","New World Sparrows and Allies","903"
"","3989","image-multi-choice","66","514451","0.0-1.0-65.0","{""Q0"":""Townsend's Warbler""}","Blackburnian Warbler","Wood-Warblers","874"
"","3983","image-multi-choice","67","519460","0.0-1.0-66.0","{""Q0"":""Northern Waterthrush""}","Northern Waterthrush","Wood-Warblers","862"
"","2659","image-multi-choice","68","523155","0.0-1.0-67.0","{""Q0"":""Yellow Warbler""}","Yellow Warbler","Wood-Warblers","875"
"","3425","image-multi-choice","69","527620","0.0-1.0-68.0","{""Q0"":""Lincoln's Sparrow""}","Lincoln's Sparrow","New World Sparrows and Allies","903"
"","4436","image-multi-choice","70","533084","0.0-1.0-69.0","{""Q0"":""American Tree Sparrow""}","American Tree Sparrow","New World Sparrows and Allies","894"
"","5121","image-multi-choice","71","539249","0.0-1.0-70.0","{""Q0"":""Orange-crowned Warbler""}","Orange-crowned Warbler","Wood-Warblers","867"
"","3976","image-multi-choice","72","544268","0.0-1.0-71.0","{""Q0"":""Lincoln's Sparrow""}","Lincoln's Sparrow","New World Sparrows and Allies","903"
"","3998","image-multi-choice","73","549299","0.0-1.0-72.0","{""Q0"":""Magnolia Warbler""}","Magnolia Warbler","Wood-Warblers","758"
"","3600","image-multi-choice","74","553926","0.0-1.0-73.0","{""Q0"":""Lincoln's Sparrow""}","Lincoln's Sparrow","New World Sparrows and Allies","903"
"","2540","image-multi-choice","75","557502","0.0-1.0-74.0","{""Q0"":""Yellow Warbler""}","Yellow Warbler","Wood-Warblers","875"
"","3307","image-multi-choice","76","561854","0.0-1.0-75.0","{""Q0"":""White-crowned Sparrow""}","White-crowned Sparrow","New World Sparrows and Allies","766"
"","3522","image-multi-choice","77","566407","0.0-1.0-76.0","{""Q0"":""Orange-crowned Warbler""}","Nashville Warbler","Wood-Warblers","868"
"","3671","image-multi-choice","78","571105","0.0-1.0-77.0","{""Q0"":""American Tree Sparrow""}","American Tree Sparrow","New World Sparrows and Allies","894"
"","3707","image-multi-choice","79","575853","0.0-1.0-78.0","{""Q0"":""Townsend's Warbler""}","Townsend's Warbler","Wood-Warblers","881"
"","3826","image-multi-choice","80","580707","0.0-1.0-79.0","{""Q0"":""Chipping Sparrow""}","Chipping Sparrow","New World Sparrows and Allies","769"
"","3868","image-multi-choice","81","585610","0.0-1.0-80.0","{""Q0"":""White-throated Sparrow""}","White-throated Sparrow","New World Sparrows and Allies","764"
"","2794","image-multi-choice","82","589418","0.0-1.0-81.0","{""Q0"":""Ovenbird""}","Ovenbird","Wood-Warblers","860"
"","2804","image-multi-choice","83","593259","0.0-1.0-82.0","{""Q0"":""White-crowned Sparrow""}","White-crowned Sparrow","New World Sparrows and Allies","766"
"","3431","image-multi-choice","84","597724","0.0-1.0-83.0","{""Q0"":""Magnolia Warbler""}","Magnolia Warbler","Wood-Warblers","758"
"","2866","image-multi-choice","85","601620","0.0-1.0-84.0","{""Q0"":""Yellow Warbler""}","Yellow Warbler","Wood-Warblers","875"
"","3399","image-multi-choice","86","606060","0.0-1.0-85.0","{""Q0"":""Lark Sparrow""}","Lark Sparrow","New World Sparrows and Allies","899"
"","4256","image-multi-choice","87","611356","0.0-1.0-86.0","{""Q0"":""Lincoln's Sparrow""}","Lincoln's Sparrow","New World Sparrows and Allies","903"
"","5602","image-multi-choice","88","617990","0.0-1.0-87.0","{""Q0"":""Black-and-white Warbler""}","Black-and-white Warbler","Wood-Warblers","864"
"","3212","image-multi-choice","89","622230","0.0-1.0-88.0","{""Q0"":""White-crowned Sparrow""}","White-crowned Sparrow","New World Sparrows and Allies","766"
"","4555","image-multi-choice","90","627816","0.0-1.0-89.0","{""Q0"":""Magnolia Warbler""}","Townsend's Warbler","Wood-Warblers","881"
"","3466","image-multi-choice","91","632310","0.0-1.0-90.0","{""Q0"":""White-throated Sparrow""}","White-throated Sparrow","New World Sparrows and Allies","764"
"","6572","image-multi-choice","92","639910","0.0-1.0-91.0","{""Q0"":""Townsend's Warbler""}","Magnolia Warbler","Wood-Warblers","758"
"","4278","image-multi-choice","93","645215","0.0-1.0-92.0","{""Q0"":""Lincoln's Sparrow""}","Lincoln's Sparrow","New World Sparrows and Allies","903"
"","8283","image-multi-choice","94","654525","0.0-1.0-93.0","{""Q0"":""Blackburnian Warbler""}","Blackburnian Warbler","Wood-Warblers","874"
"","6863","image-multi-choice","95","662415","0.0-1.0-94.0","{""Q0"":""Vesper Sparrow""}","Vesper Sparrow","New World Sparrows and Allies","898"
"","3308","image-multi-choice","96","666761","0.0-1.0-95.0","{""Q0"":""Lark Sparrow""}","Lark Sparrow","New World Sparrows and Allies","899"
"","4263","image-multi-choice","97","672056","0.0-1.0-96.0","{""Q0"":""Song Sparrow""}","Swamp Sparrow","New World Sparrows and Allies","904"
"","3015","image-multi-choice","98","676082","0.0-1.0-97.0","{""Q0"":""Northern Waterthrush""}","Northern Waterthrush","Wood-Warblers","862"
"","2738","image-multi-choice","99","679850","0.0-1.0-98.0","{""Q0"":""Ovenbird""}","Ovenbird","Wood-Warblers","860"
"","3330","image-multi-choice","100","684219","0.0-1.0-99.0","{""Q0"":""White-throated Sparrow""}","White-throated Sparrow","New World Sparrows and Allies","764"
"","12708","image-multi-choice","101","697971","0.0-1.0-100.0","{""Q0"":""Orange-crowned Warbler""}","Nashville Warbler","Wood-Warblers","868"
"","4244","image-multi-choice","102","703245","0.0-1.0-101.0","{""Q0"":""Magnolia Warbler""}","Magnolia Warbler","Wood-Warblers","758"
"","4259","image-multi-choice","103","708533","0.0-1.0-102.0","{""Q0"":""American Tree Sparrow""}","Swamp Sparrow","New World Sparrows and Allies","904"
"","3654","image-multi-choice","104","713197","0.0-1.0-103.0","{""Q0"":""Blackburnian Warbler""}","Blackburnian Warbler","Wood-Warblers","874"
"","3233","image-multi-choice","105","717469","0.0-1.0-104.0","{""Q0"":""Northern Waterthrush""}","Northern Waterthrush","Wood-Warblers","862"
"","5730","image-multi-choice","106","724238","0.0-1.0-105.0","{""Q0"":""American Tree Sparrow""}","Swamp Sparrow","New World Sparrows and Allies","904"
"","4131","image-multi-choice","107","729445","0.0-1.0-106.0","{""Q0"":""Song Sparrow""}","Song Sparrow","New World Sparrows and Allies","902"
"","4173","image-multi-choice","108","734646","0.0-1.0-107.0","{""Q0"":""Black-and-white Warbler""}","Black-and-white Warbler","Wood-Warblers","864"
"","3676","image-multi-choice","109","739351","0.0-1.0-108.0","{""Q0"":""Blackburnian Warbler""}","Blackburnian Warbler","Wood-Warblers","874"
"","7922","image-multi-choice","110","748304","0.0-1.0-109.0","{""Q0"":""Nashville Warbler""}","Nashville Warbler","Wood-Warblers","868"
"","3949","image-multi-choice","111","753285","0.0-1.0-110.0","{""Q0"":""Lark Sparrow""}","Chipping Sparrow","New World Sparrows and Allies","769"
"","3679","image-multi-choice","112","757989","0.0-1.0-111.0","{""Q0"":""American Tree Sparrow""}","American Tree Sparrow","New World Sparrows and Allies","894"
"","3348","image-multi-choice","113","762365","0.0-1.0-112.0","{""Q0"":""Northern Waterthrush""}","Northern Waterthrush","Wood-Warblers","862"
"","2570","image-multi-choice","114","765962","0.0-1.0-113.0","{""Q0"":""Yellow Warbler""}","Yellow Warbler","Wood-Warblers","875"
"","2981","image-multi-choice","115","769970","0.0-1.0-114.0","{""Q0"":""Tennessee Warbler""}","Tennessee Warbler","Wood-Warblers","866"
"","3527","image-multi-choice","116","774527","0.0-1.0-115.0","{""Q0"":""Lincoln's Sparrow""}","Lincoln's Sparrow","New World Sparrows and Allies","903"
"","7551","image-multi-choice","117","783092","0.0-1.0-116.0","{""Q0"":""Blackburnian Warbler""}","Black-and-white Warbler","Wood-Warblers","864"
"","3422","image-multi-choice","118","787547","0.0-1.0-117.0","{""Q0"":""Song Sparrow""}","Song Sparrow","New World Sparrows and Allies","902"
"","3743","image-multi-choice","119","792325","0.0-1.0-118.0","{""Q0"":""Lincoln's Sparrow""}","Lincoln's Sparrow","New World Sparrows and Allies","903"
"","3291","image-multi-choice","120","823288","0.0-1.0-119.0","{""Q0"":""Black-and-white Warbler""}","Blackburnian Warbler","Wood-Warblers","874"
"","5330","image-multi-choice","121","829669","0.0-1.0-120.0","{""Q0"":""Nashville Warbler""}","Nashville Warbler","Wood-Warblers","868"
"","3740","image-multi-choice","122","834430","0.0-1.0-121.0","{""Q0"":""Lincoln's Sparrow""}","Vesper Sparrow","New World Sparrows and Allies","898"
"","4352","image-multi-choice","123","839823","0.0-1.0-122.0","{""Q0"":""Townsend's Warbler""}","Townsend's Warbler","Wood-Warblers","881"
"","3650","image-multi-choice","124","844502","0.0-1.0-123.0","{""Q0"":""Fox Sparrow""}","Song Sparrow","New World Sparrows and Allies","902"
"","3159","image-multi-choice","125","848690","0.0-1.0-124.0","{""Q0"":""White-throated Sparrow""}","White-throated Sparrow","New World Sparrows and Allies","764"
"","2895","image-multi-choice","126","852625","0.0-1.0-125.0","{""Q0"":""Nashville Warbler""}","Nashville Warbler","Wood-Warblers","868"
"","2983","image-multi-choice","127","856658","0.0-1.0-126.0","{""Q0"":""Fox Sparrow""}","Fox Sparrow","New World Sparrows and Allies","901"
"","3633","image-multi-choice","128","861330","0.0-1.0-127.0","{""Q0"":""Magnolia Warbler""}","Magnolia Warbler","Wood-Warblers","758"
"","4310","image-multi-choice","129","866671","0.0-1.0-128.0","{""Q0"":""Tennessee Warbler""}","Nashville Warbler","Wood-Warblers","868"
"","7954","image-multi-choice","130","875664","0.0-1.0-129.0","{""Q0"":""White-crowned Sparrow""}","Swamp Sparrow","New World Sparrows and Allies","904"
"","3083","image-multi-choice","131","879780","0.0-1.0-130.0","{""Q0"":""White-throated Sparrow""}","White-throated Sparrow","New World Sparrows and Allies","764"
"","5508","image-multi-choice","132","886317","0.0-1.0-131.0","{""Q0"":""Song Sparrow""}","Song Sparrow","New World Sparrows and Allies","902"
"","3419","image-multi-choice","133","890764","0.0-1.0-132.0","{""Q0"":""Yellow Warbler""}","Yellow Warbler","Wood-Warblers","875"
"","4771","image-multi-choice","134","896566","0.0-1.0-133.0","{""Q0"":""Townsend's Warbler""}","Townsend's Warbler","Wood-Warblers","881"
"","3374","image-multi-choice","135","900980","0.0-1.0-134.0","{""Q0"":""Fox Sparrow""}","Fox Sparrow","New World Sparrows and Allies","901"
"","2432","image-multi-choice","136","904439","0.0-1.0-135.0","{""Q0"":""White-crowned Sparrow""}","White-crowned Sparrow","New World Sparrows and Allies","766"
"","3634","image-multi-choice","137","909088","0.0-1.0-136.0","{""Q0"":""Magnolia Warbler""}","Magnolia Warbler","Wood-Warblers","758"
"","3629","image-multi-choice","138","913745","0.0-1.0-137.0","{""Q0"":""Blackburnian Warbler""}","Blackburnian Warbler","Wood-Warblers","874"
"","3939","image-multi-choice","139","918714","0.0-1.0-138.0","{""Q0"":""Magnolia Warbler""}","Magnolia Warbler","Wood-Warblers","758"
"","6179","image-multi-choice","140","925927","0.0-1.0-139.0","{""Q0"":""Chipping Sparrow""}","Chipping Sparrow","New World Sparrows and Allies","769"
"","17558","image-multi-choice","141","944519","0.0-1.0-140.0","{""Q0"":""Blackburnian Warbler""}","American Tree Sparrow","New World Sparrows and Allies","894"
"","4711","image-multi-choice","142","950282","0.0-1.0-141.0","{""Q0"":""Nashville Warbler""}","Orange-crowned Warbler","Wood-Warblers","867"
"","5475","image-multi-choice","143","956782","0.0-1.0-142.0","{""Q0"":""Fox Sparrow""}","Fox Sparrow","New World Sparrows and Allies","901"
"","2857","image-multi-choice","144","960668","0.0-1.0-143.0","{""Q0"":""Yellow Warbler""}","Yellow Warbler","Wood-Warblers","875"
"","4448","image-multi-choice","145","966151","0.0-1.0-144.0","{""Q0"":""American Tree Sparrow""}","American Tree Sparrow","New World Sparrows and Allies","894"
"","7590","image-multi-choice","146","974779","0.0-1.0-145.0","{""Q0"":""Lincoln's Sparrow""}","Swamp Sparrow","New World Sparrows and Allies","904"
"","3699","image-multi-choice","147","979510","0.0-1.0-146.0","{""Q0"":""Chipping Sparrow""}","Lark Sparrow","New World Sparrows and Allies","899"
"","6502","image-multi-choice","148","987040","0.0-1.0-147.0","{""Q0"":""Vesper Sparrow""}","Vesper Sparrow","New World Sparrows and Allies","898"
"","3824","image-multi-choice","149","991894","0.0-1.0-148.0","{""Q0"":""Fox Sparrow""}","Fox Sparrow","New World Sparrows and Allies","901"
"","4629","image-multi-choice","150","997559","0.0-1.0-149.0","{""Q0"":""White-throated Sparrow""}","Song Sparrow","New World Sparrows and Allies","902"
"","4309","image-multi-choice","151","1002890","0.0-1.0-150.0","{""Q0"":""Blackburnian Warbler""}","Blackburnian Warbler","Wood-Warblers","874"
"","4279","image-multi-choice","152","1008204","0.0-1.0-151.0","{""Q0"":""Orange-crowned Warbler""}","Orange-crowned Warbler","Wood-Warblers","867"
"","4187","image-multi-choice","153","1013420","0.0-1.0-152.0","{""Q0"":""Fox Sparrow""}","Fox Sparrow","New World Sparrows and Allies","901"
"","3650","image-multi-choice","154","1018100","0.0-1.0-153.0","{""Q0"":""Tennessee Warbler""}","Orange-crowned Warbler","Wood-Warblers","867"
"","5173","image-multi-choice","155","1024301","0.0-1.0-154.0","{""Q0"":""Blackburnian Warbler""}","Townsend's Warbler","Wood-Warblers","881"
"","2971","image-multi-choice","156","1028298","0.0-1.0-155.0","{""Q0"":""Ovenbird""}","Ovenbird","Wood-Warblers","860"
"","3497","image-multi-choice","157","1032823","0.0-1.0-156.0","{""Q0"":""Orange-crowned Warbler""}","Nashville Warbler","Wood-Warblers","868"
"","4695","image-multi-choice","158","1038544","0.0-1.0-157.0","{""Q0"":""Song Sparrow""}","Song Sparrow","New World Sparrows and Allies","902"
"","2977","image-multi-choice","159","1042550","0.0-1.0-158.0","{""Q0"":""Yellow Warbler""}","Yellow Warbler","Wood-Warblers","875"
"","3079","image-multi-choice","160","1046656","0.0-1.0-159.0","{""Q0"":""Fox Sparrow""}","Fox Sparrow","New World Sparrows and Allies","901"
"","3179","image-multi-choice","161","1050859","0.0-1.0-160.0","{""Q0"":""Black-and-white Warbler""}","Black-and-white Warbler","Wood-Warblers","864"
"","7317","image-multi-choice","162","1059209","0.0-1.0-161.0","{""Q0"":""Yellow Warbler""}","Orange-crowned Warbler","Wood-Warblers","867"
"","3164","image-multi-choice","163","1063389","0.0-1.0-162.0","{""Q0"":""American Tree Sparrow""}","American Tree Sparrow","New World Sparrows and Allies","894"
"","4735","image-multi-choice","164","1069154","0.0-1.0-163.0","{""Q0"":""Blackburnian Warbler""}","Townsend's Warbler","Wood-Warblers","881"
"","5501","image-multi-choice","165","1075690","0.0-1.0-164.0","{""Q0"":""Lincoln's Sparrow""}","Song Sparrow","New World Sparrows and Allies","902"
"","3304","image-multi-choice","166","1080027","0.0-1.0-165.0","{""Q0"":""Orange-crowned Warbler""}","Nashville Warbler","Wood-Warblers","868"
"","3118","image-multi-choice","167","1084171","0.0-1.0-166.0","{""Q0"":""Tennessee Warbler""}","Tennessee Warbler","Wood-Warblers","866"
"","4138","image-multi-choice","168","1089347","0.0-1.0-167.0","{""Q0"":""Chipping Sparrow""}","Chipping Sparrow","New World Sparrows and Allies","769"
"","3236","image-multi-choice","169","1093611","0.0-1.0-168.0","{""Q0"":""Ovenbird""}","Ovenbird","Wood-Warblers","860"
"","3421","image-multi-choice","170","1098060","0.0-1.0-169.0","{""Q0"":""White-throated Sparrow""}","White-throated Sparrow","New World Sparrows and Allies","764"
"","3708","image-multi-choice","171","1102796","0.0-1.0-170.0","{""Q0"":""Song Sparrow""}","Fox Sparrow","New World Sparrows and Allies","901"
"","5267","image-multi-choice","172","1109101","0.0-1.0-171.0","{""Q0"":""Townsend's Warbler""}","Blackburnian Warbler","Wood-Warblers","874"
"","4106","image-multi-choice","173","1114238","0.0-1.0-172.0","{""Q0"":""American Tree Sparrow""}","American Tree Sparrow","New World Sparrows and Allies","894"
"","4251","image-multi-choice","174","1119518","0.0-1.0-173.0","{""Q0"":""Lincoln's Sparrow""}","Swamp Sparrow","New World Sparrows and Allies","904"
"","4524","image-multi-choice","175","1125075","0.0-1.0-174.0","{""Q0"":""Townsend's Warbler""}","Townsend's Warbler","Wood-Warblers","881"
"","6274","image-multi-choice","176","1132385","0.0-1.0-175.0","{""Q0"":""Orange-crowned Warbler""}","Tennessee Warbler","Wood-Warblers","866"
"","3135","image-multi-choice","177","1136551","0.0-1.0-176.0","{""Q0"":""Northern Waterthrush""}","Northern Waterthrush","Wood-Warblers","862"
"","7381","image-multi-choice","178","1144962","0.0-1.0-177.0","{""Q0"":""Swamp Sparrow""}","Swamp Sparrow","New World Sparrows and Allies","904"
"","5081","image-multi-choice","179","1151070","0.0-1.0-178.0","{""Q0"":""Fox Sparrow""}","Fox Sparrow","New World Sparrows and Allies","901"
"","3348","image-multi-choice","180","1172490","0.0-1.0-179.0","{""Q0"":""American Tree Sparrow""}","American Tree Sparrow","New World Sparrows and Allies","894"
"","5244","image-multi-choice","181","1178781","0.0-1.0-180.0","{""Q0"":""Fox Sparrow""}","Fox Sparrow","New World Sparrows and Allies","901"
"","3918","image-multi-choice","182","1183733","0.0-1.0-181.0","{""Q0"":""Lincoln's Sparrow""}","Vesper Sparrow","New World Sparrows and Allies","898"
"","3812","image-multi-choice","183","1188588","0.0-1.0-182.0","{""Q0"":""Song Sparrow""}","Song Sparrow","New World Sparrows and Allies","902"
"","3797","image-multi-choice","184","1193413","0.0-1.0-183.0","{""Q0"":""Blackburnian Warbler""}","Blackburnian Warbler","Wood-Warblers","874"
"","3924","image-multi-choice","185","1198381","0.0-1.0-184.0","{""Q0"":""White-crowned Sparrow""}","White-crowned Sparrow","New World Sparrows and Allies","766"
"","5052","image-multi-choice","186","1204461","0.0-1.0-185.0","{""Q0"":""American Tree Sparrow""}","American Tree Sparrow","New World Sparrows and Allies","894"
"","3238","image-multi-choice","187","1208731","0.0-1.0-186.0","{""Q0"":""Black-and-white Warbler""}","Black-and-white Warbler","Wood-Warblers","864"
"","2879","image-multi-choice","188","1212642","0.0-1.0-187.0","{""Q0"":""Lark Sparrow""}","Lark Sparrow","New World Sparrows and Allies","899"
"","3477","image-multi-choice","189","1217134","0.0-1.0-188.0","{""Q0"":""Nashville Warbler""}","Nashville Warbler","Wood-Warblers","868"
"","2841","image-multi-choice","190","1221003","0.0-1.0-189.0","{""Q0"":""Northern Waterthrush""}","Northern Waterthrush","Wood-Warblers","862"
"","3078","image-multi-choice","191","1225107","0.0-1.0-190.0","{""Q0"":""Tennessee Warbler""}","Tennessee Warbler","Wood-Warblers","866"
"","3051","image-multi-choice","192","1229187","0.0-1.0-191.0","{""Q0"":""Nashville Warbler""}","Nashville Warbler","Wood-Warblers","868"
"","3493","image-multi-choice","193","1233712","0.0-1.0-192.0","{""Q0"":""Fox Sparrow""}","Fox Sparrow","New World Sparrows and Allies","901"
"","3172","image-multi-choice","194","1237917","0.0-1.0-193.0","{""Q0"":""Blackburnian Warbler""}","Blackburnian Warbler","Wood-Warblers","874"
"","4336","image-multi-choice","195","1243278","0.0-1.0-194.0","{""Q0"":""Swamp Sparrow""}","Swamp Sparrow","New World Sparrows and Allies","904"
"","4671","image-multi-choice","196","1248981","0.0-1.0-195.0","{""Q0"":""Townsend's Warbler""}","Townsend's Warbler","Wood-Warblers","881"
"","2566","image-multi-choice","197","1252575","0.0-1.0-196.0","{""Q0"":""Tennessee Warbler""}","Tennessee Warbler","Wood-Warblers","866"
"","3978","image-multi-choice","198","1257594","0.0-1.0-197.0","{""Q0"":""White-crowned Sparrow""}","White-crowned Sparrow","New World Sparrows and Allies","766"
"","4253","image-multi-choice","199","1262878","0.0-1.0-198.0","{""Q0"":""Ovenbird""}","Ovenbird","Wood-Warblers","860"
"","3876","image-multi-choice","200","1267791","0.0-1.0-199.0","{""Q0"":""Lincoln's Sparrow""}","Vesper Sparrow","New World Sparrows and Allies","898"
"","3840","image-multi-choice","201","1272660","0.0-1.0-200.0","{""Q0"":""Blackburnian Warbler""}","Blackburnian Warbler","Wood-Warblers","874"
"","3498","image-multi-choice","202","1277176","0.0-1.0-201.0","{""Q0"":""Chipping Sparrow""}","Chipping Sparrow","New World Sparrows and Allies","769"
"","4135","image-multi-choice","203","1282337","0.0-1.0-202.0","{""Q0"":""Fox Sparrow""}","Vesper Sparrow","New World Sparrows and Allies","898"
"","59057","image-multi-choice","204","1342429","0.0-1.0-203.0","{""Q0"":""Yellow Warbler""}","Yellow Warbler","Wood-Warblers","875"
"","3439","image-multi-choice","205","1346904","0.0-1.0-204.0","{""Q0"":""Nashville Warbler""}","Orange-crowned Warbler","Wood-Warblers","867"
"","2929","image-multi-choice","206","1350860","0.0-1.0-205.0","{""Q0"":""White-throated Sparrow""}","White-throated Sparrow","New World Sparrows and Allies","764"
"","4586","image-multi-choice","207","1356476","0.0-1.0-206.0","{""Q0"":""Swamp Sparrow""}","American Tree Sparrow","New World Sparrows and Allies","894"
"","3959","image-multi-choice","208","1361467","0.0-1.0-207.0","{""Q0"":""Orange-crowned Warbler""}","Orange-crowned Warbler","Wood-Warblers","867"
"","5387","image-multi-choice","209","1367880","0.0-1.0-208.0","{""Q0"":""Black-and-white Warbler""}","Black-and-white Warbler","Wood-Warblers","864"
"","3184","image-multi-choice","210","1372088","0.0-1.0-209.0","{""Q0"":""Lark Sparrow""}","Lark Sparrow","New World Sparrows and Allies","899"
"","3538","image-multi-choice","211","1376658","0.0-1.0-210.0","{""Q0"":""Chipping Sparrow""}","Chipping Sparrow","New World Sparrows and Allies","769"
"","2809","image-multi-choice","212","1380497","0.0-1.0-211.0","{""Q0"":""Orange-crowned Warbler""}","Orange-crowned Warbler","Wood-Warblers","867"
"","2775","image-multi-choice","213","1384298","0.0-1.0-212.0","{""Q0"":""Yellow Warbler""}","Yellow Warbler","Wood-Warblers","875"
"","3289","image-multi-choice","214","1388618","0.0-1.0-213.0","{""Q0"":""American Tree Sparrow""}","American Tree Sparrow","New World Sparrows and Allies","894"
"","4332","image-multi-choice","215","1393984","0.0-1.0-214.0","{""Q0"":""Vesper Sparrow""}","Vesper Sparrow","New World Sparrows and Allies","898"
"","3440","image-multi-choice","216","1398451","0.0-1.0-215.0","{""Q0"":""Ovenbird""}","Ovenbird","Wood-Warblers","860"
"","3008","image-multi-choice","217","1402492","0.0-1.0-216.0","{""Q0"":""Lark Sparrow""}","Lark Sparrow","New World Sparrows and Allies","899"
"","4340","image-multi-choice","218","1407860","0.0-1.0-217.0","{""Q0"":""Lincoln's Sparrow""}","Lincoln's Sparrow","New World Sparrows and Allies","903"
"","4366","image-multi-choice","219","1413261","0.0-1.0-218.0","{""Q0"":""Chipping Sparrow""}","Chipping Sparrow","New World Sparrows and Allies","769"
"","4324","image-multi-choice","220","1418613","0.0-1.0-219.0","{""Q0"":""Vesper Sparrow""}","Lincoln's Sparrow","New World Sparrows and Allies","903"
"","7614","image-multi-choice","221","1427254","0.0-1.0-220.0","{""Q0"":""Northern Waterthrush""}","Northern Waterthrush","Wood-Warblers","862"
"","4591","image-multi-choice","222","1432880","0.0-1.0-221.0","{""Q0"":""Chipping Sparrow""}","Chipping Sparrow","New World Sparrows and Allies","769"
"","4478","image-multi-choice","223","1438390","0.0-1.0-222.0","{""Q0"":""Lincoln's Sparrow""}","Lincoln's Sparrow","New World Sparrows and Allies","903"
"","3036","image-multi-choice","224","1442440","0.0-1.0-223.0","{""Q0"":""Blackburnian Warbler""}","Blackburnian Warbler","Wood-Warblers","874"
"","4154","image-multi-choice","225","1447623","0.0-1.0-224.0","{""Q0"":""Swamp Sparrow""}","Swamp Sparrow","New World Sparrows and Allies","904"
"","3759","image-multi-choice","226","1452414","0.0-1.0-225.0","{""Q0"":""American Tree Sparrow""}","American Tree Sparrow","New World Sparrows and Allies","894"
"","3147","image-multi-choice","227","1456592","0.0-1.0-226.0","{""Q0"":""Fox Sparrow""}","Fox Sparrow","New World Sparrows and Allies","901"
"","2817","image-multi-choice","228","1460438","0.0-1.0-227.0","{""Q0"":""Northern Waterthrush""}","Northern Waterthrush","Wood-Warblers","862"
"","3686","image-multi-choice","229","1465157","0.0-1.0-228.0","{""Q0"":""Nashville Warbler""}","Nashville Warbler","Wood-Warblers","868"
"","3631","image-multi-choice","230","1469815","0.0-1.0-229.0","{""Q0"":""Black-and-white Warbler""}","Black-and-white Warbler","Wood-Warblers","864"
"","3428","image-multi-choice","231","1474271","0.0-1.0-230.0","{""Q0"":""Tennessee Warbler""}","Tennessee Warbler","Wood-Warblers","866"
"","3165","image-multi-choice","232","1478462","0.0-1.0-231.0","{""Q0"":""Townsend's Warbler""}","Townsend's Warbler","Wood-Warblers","881"
"","4352","image-multi-choice","233","1483855","0.0-1.0-232.0","{""Q0"":""Blackburnian Warbler""}","Magnolia Warbler","Wood-Warblers","758"
"","2882","image-multi-choice","234","1487768","0.0-1.0-233.0","{""Q0"":""Northern Waterthrush""}","Northern Waterthrush","Wood-Warblers","862"
"","3282","image-multi-choice","235","1492063","0.0-1.0-234.0","{""Q0"":""Tennessee Warbler""}","Orange-crowned Warbler","Wood-Warblers","867"
"","2960","image-multi-choice","236","1496056","0.0-1.0-235.0","{""Q0"":""White-throated Sparrow""}","White-throated Sparrow","New World Sparrows and Allies","764"
"","2520","image-multi-choice","237","1499608","0.0-1.0-236.0","{""Q0"":""Yellow Warbler""}","Yellow Warbler","Wood-Warblers","875"
"","2972","image-multi-choice","238","1503609","0.0-1.0-237.0","{""Q0"":""Fox Sparrow""}","Fox Sparrow","New World Sparrows and Allies","901"
"","5476","image-multi-choice","239","1510118","0.0-1.0-238.0","{""Q0"":""Swamp Sparrow""}","Swamp Sparrow","New World Sparrows and Allies","904"
"","2781","image-multi-choice","240","1527407","0.0-1.0-239.0","{""Q0"":""Fox Sparrow""}","Fox Sparrow","New World Sparrows and Allies","901"
"","3487","image-multi-choice","241","1531936","0.0-1.0-240.0","{""Q0"":""Tennessee Warbler""}","Orange-crowned Warbler","Wood-Warblers","867"
"","2845","image-multi-choice","242","1535813","0.0-1.0-241.0","{""Q0"":""White-crowned Sparrow""}","White-crowned Sparrow","New World Sparrows and Allies","766"
"","4960","image-multi-choice","243","1541809","0.0-1.0-242.0","{""Q0"":""White-throated Sparrow""}","White-throated Sparrow","New World Sparrows and Allies","764"
"","3229","image-multi-choice","244","1546066","0.0-1.0-243.0","{""Q0"":""Fox Sparrow""}","Song Sparrow","New World Sparrows and Allies","902"
"","2613","image-multi-choice","245","1549710","0.0-1.0-244.0","{""Q0"":""Lark Sparrow""}","Lark Sparrow","New World Sparrows and Allies","899"
"","5972","image-multi-choice","246","1556719","0.0-1.0-245.0","{""Q0"":""Vesper Sparrow""}","Vesper Sparrow","New World Sparrows and Allies","898"
"","2934","image-multi-choice","247","1560679","0.0-1.0-246.0","{""Q0"":""Lark Sparrow""}","Lark Sparrow","New World Sparrows and Allies","899"
"","3695","image-multi-choice","248","1565403","0.0-1.0-247.0","{""Q0"":""American Tree Sparrow""}","American Tree Sparrow","New World Sparrows and Allies","894"
"","3750","image-multi-choice","249","1570183","0.0-1.0-248.0","{""Q0"":""Black-and-white Warbler""}","Black-and-white Warbler","Wood-Warblers","864"
"","3746","image-multi-choice","250","1574956","0.0-1.0-249.0","{""Q0"":""Lark Sparrow""}","Lark Sparrow","New World Sparrows and Allies","899"
"","3479","image-multi-choice","251","1579469","0.0-1.0-250.0","{""Q0"":""Orange-crowned Warbler""}","Orange-crowned Warbler","Wood-Warblers","867"
"","3107","image-multi-choice","252","1583602","0.0-1.0-251.0","{""Q0"":""Blackburnian Warbler""}","Blackburnian Warbler","Wood-Warblers","874"
"","4135","image-multi-choice","253","1588766","0.0-1.0-252.0","{""Q0"":""Vesper Sparrow""}","Vesper Sparrow","New World Sparrows and Allies","898"
"","4098","image-multi-choice","254","1593891","0.0-1.0-253.0","{""Q0"":""Townsend's Warbler""}","Townsend's Warbler","Wood-Warblers","881"
"","5254","image-multi-choice","255","1600169","0.0-1.0-254.0","{""Q0"":""Swamp Sparrow""}","Swamp Sparrow","New World Sparrows and Allies","904"
"","4352","image-multi-choice","256","1605547","0.0-1.0-255.0","{""Q0"":""Song Sparrow""}","Song Sparrow","New World Sparrows and Allies","902"
"","3365","image-multi-choice","257","1609942","0.0-1.0-256.0","{""Q0"":""Swamp Sparrow""}","Swamp Sparrow","New World Sparrows and Allies","904"
"","3446","image-multi-choice","258","1614416","0.0-1.0-257.0","{""Q0"":""Ovenbird""}","Ovenbird","Wood-Warblers","860"
"","3084","image-multi-choice","259","1618515","0.0-1.0-258.0","{""Q0"":""Black-and-white Warbler""}","Black-and-white Warbler","Wood-Warblers","864"
"","5764","image-multi-choice","260","1625308","0.0-1.0-259.0","{""Q0"":""American Tree Sparrow""}","American Tree Sparrow","New World Sparrows and Allies","894"
"","2941","image-multi-choice","261","1629289","0.0-1.0-260.0","{""Q0"":""Yellow Warbler""}","Yellow Warbler","Wood-Warblers","875"
"","3610","image-multi-choice","262","1633926","0.0-1.0-261.0","{""Q0"":""Vesper Sparrow""}","Vesper Sparrow","New World Sparrows and Allies","898"
"","3542","image-multi-choice","263","1638493","0.0-1.0-262.0","{""Q0"":""Chipping Sparrow""}","Chipping Sparrow","New World Sparrows and Allies","769"
"","3261","image-multi-choice","264","1642782","0.0-1.0-263.0","{""Q0"":""Northern Waterthrush""}","Northern Waterthrush","Wood-Warblers","862"
"","3787","image-multi-choice","265","1647598","0.0-1.0-264.0","{""Q0"":""Song Sparrow""}","Song Sparrow","New World Sparrows and Allies","902"
"","4673","image-multi-choice","266","1653307","0.0-1.0-265.0","{""Q0"":""Nashville Warbler""}","Nashville Warbler","Wood-Warblers","868"
"","2671","image-multi-choice","267","1657022","0.0-1.0-266.0","{""Q0"":""White-throated Sparrow""}","White-throated Sparrow","New World Sparrows and Allies","764"
"","2814","image-multi-choice","268","1660862","0.0-1.0-267.0","{""Q0"":""White-crowned Sparrow""}","White-crowned Sparrow","New World Sparrows and Allies","766"
"","3191","image-multi-choice","269","1665072","0.0-1.0-268.0","{""Q0"":""American Tree Sparrow""}","American Tree Sparrow","New World Sparrows and Allies","894"
"","3107","image-multi-choice","270","1669207","0.0-1.0-269.0","{""Q0"":""White-throated Sparrow""}","White-throated Sparrow","New World Sparrows and Allies","764"
"","2808","image-multi-choice","271","1673048","0.0-1.0-270.0","{""Q0"":""White-crowned Sparrow""}","White-crowned Sparrow","New World Sparrows and Allies","766"
"","2453","image-multi-choice","272","1676529","0.0-1.0-271.0","{""Q0"":""Yellow Warbler""}","Yellow Warbler","Wood-Warblers","875"
"","3555","image-multi-choice","273","1681121","0.0-1.0-272.0","{""Q0"":""Chipping Sparrow""}","Chipping Sparrow","New World Sparrows and Allies","769"
"","5010","image-multi-choice","274","1687170","0.0-1.0-273.0","{""Q0"":""Ovenbird""}","Ovenbird","Wood-Warblers","860"
"","2717","image-multi-choice","275","1690914","0.0-1.0-274.0","{""Q0"":""Northern Waterthrush""}","Northern Waterthrush","Wood-Warblers","862"
"","4871","image-multi-choice","276","1696826","0.0-1.0-275.0","{""Q0"":""Ovenbird""}","Ovenbird","Wood-Warblers","860"
"","2750","image-multi-choice","277","1700610","0.0-1.0-276.0","{""Q0"":""Black-and-white Warbler""}","Black-and-white Warbler","Wood-Warblers","864"
"","3556","image-multi-choice","278","1705195","0.0-1.0-277.0","{""Q0"":""Chipping Sparrow""}","Chipping Sparrow","New World Sparrows and Allies","769"
"","3115","image-multi-choice","279","1709324","0.0-1.0-278.0","{""Q0"":""Fox Sparrow""}","Fox Sparrow","New World Sparrows and Allies","901"
"","5103","image-multi-choice","280","1715460","0.0-1.0-279.0","{""Q0"":""Magnolia Warbler""}","Magnolia Warbler","Wood-Warblers","758"
"","2728","image-multi-choice","281","1719213","0.0-1.0-280.0","{""Q0"":""White-crowned Sparrow""}","White-crowned Sparrow","New World Sparrows and Allies","766"
"","5999","image-multi-choice","282","1726230","0.0-1.0-281.0","{""Q0"":""Swamp Sparrow""}","White-throated Sparrow","New World Sparrows and Allies","764"
"","4679","image-multi-choice","283","1731949","0.0-1.0-282.0","{""Q0"":""Swamp Sparrow""}","Swamp Sparrow","New World Sparrows and Allies","904"
"","4055","image-multi-choice","284","1737030","0.0-1.0-283.0","{""Q0"":""Magnolia Warbler""}","Magnolia Warbler","Wood-Warblers","758"
"","3414","image-multi-choice","285","1741471","0.0-1.0-284.0","{""Q0"":""Orange-crowned Warbler""}","Orange-crowned Warbler","Wood-Warblers","867"
"","4541","image-multi-choice","286","1747039","0.0-1.0-285.0","{""Q0"":""Townsend's Warbler""}","Magnolia Warbler","Wood-Warblers","758"
"","3573","image-multi-choice","287","1751647","0.0-1.0-286.0","{""Q0"":""Song Sparrow""}","Vesper Sparrow","New World Sparrows and Allies","898"
"","2944","image-multi-choice","288","1755616","0.0-1.0-287.0","{""Q0"":""Northern Waterthrush""}","Northern Waterthrush","Wood-Warblers","862"
"","3200","image-multi-choice","289","1759848","0.0-1.0-288.0","{""Q0"":""Blackburnian Warbler""}","Blackburnian Warbler","Wood-Warblers","874"
"","2993","image-multi-choice","290","1763880","0.0-1.0-289.0","{""Q0"":""Tennessee Warbler""}","Tennessee Warbler","Wood-Warblers","866"
"","2823","image-multi-choice","291","1767737","0.0-1.0-290.0","{""Q0"":""Lark Sparrow""}","Lark Sparrow","New World Sparrows and Allies","899"
"","3265","image-multi-choice","292","1772033","0.0-1.0-291.0","{""Q0"":""Black-and-white Warbler""}","Black-and-white Warbler","Wood-Warblers","864"
"","3737","image-multi-choice","293","1776796","0.0-1.0-292.0","{""Q0"":""Swamp Sparrow""}","Lincoln's Sparrow","New World Sparrows and Allies","903"
"","3692","image-multi-choice","294","1781515","0.0-1.0-293.0","{""Q0"":""Tennessee Warbler""}","Tennessee Warbler","Wood-Warblers","866"
"","3280","image-multi-choice","295","1785828","0.0-1.0-294.0","{""Q0"":""Ovenbird""}","Ovenbird","Wood-Warblers","860"
"","3710","image-multi-choice","296","1790564","0.0-1.0-295.0","{""Q0"":""Vesper Sparrow""}","Vesper Sparrow","New World Sparrows and Allies","898"
"","3985","image-multi-choice","297","1795581","0.0-1.0-296.0","{""Q0"":""Northern Waterthrush""}","Northern Waterthrush","Wood-Warblers","862"
"","4241","image-multi-choice","298","1800861","0.0-1.0-297.0","{""Q0"":""Chipping Sparrow""}","Chipping Sparrow","New World Sparrows and Allies","769"
"","3107","image-multi-choice","299","1804999","0.0-1.0-298.0","{""Q0"":""Lark Sparrow""}","Lark Sparrow","New World Sparrows and Allies","899"
"","2779","image-multi-choice","300","1824854","0.0-1.0-299.0","{""Q0"":""Yellow Warbler""}","Yellow Warbler","Wood-Warblers","875"
"[{""page_index"":0,""viewing_time"":2258}]","2258","instructions","301","1828119","0.0-2.0","","","",""
