"view_history","rt","trial_type","trial_index","time_elapsed","internal_node_id","responses","bird","family","class"
"[{""page_index"":0,""viewing_time"":4094}]","4095","instructions","0","4096","0.0-0.0","","","",""
"","3085","image-multi-choice","1","8203","0.0-1.0-0.0","{""Q0"":""American Tree Sparrow""}","American Tree Sparrow","New World Sparrows and Allies","894"
"","13617","image-multi-choice","2","22835","0.0-1.0-1.0","{""Q0"":""Orange-crowned Warbler""}","Tennessee Warbler","Wood-Warblers","866"
"","3494","image-multi-choice","3","27343","0.0-1.0-2.0","{""Q0"":""White-crowned Sparrow""}","White-crowned Sparrow","New World Sparrows and Allies","766"
"","2638","image-multi-choice","4","30992","0.0-1.0-3.0","{""Q0"":""American Tree Sparrow""}","American Tree Sparrow","New World Sparrows and Allies","894"
"","2892","image-multi-choice","5","34898","0.0-1.0-4.0","{""Q0"":""White-crowned Sparrow""}","White-crowned Sparrow","New World Sparrows and Allies","766"
"","4763","image-multi-choice","6","40675","0.0-1.0-5.0","{""Q0"":""Townsend's Warbler""}","Townsend's Warbler","Wood-Warblers","881"
"","3334","image-multi-choice","7","45022","0.0-1.0-6.0","{""Q0"":""Vesper Sparrow""}","Vesper Sparrow","New World Sparrows and Allies","898"
"","7867","image-multi-choice","8","53901","0.0-1.0-7.0","{""Q0"":""Orange-crowned Warbler""}","Nashville Warbler","Wood-Warblers","868"
"","4797","image-multi-choice","9","59709","0.0-1.0-8.0","{""Q0"":""Northern Waterthrush""}","Northern Waterthrush","Wood-Warblers","862"
"","3700","image-multi-choice","10","64419","0.0-1.0-9.0","{""Q0"":""Ovenbird""}","Ovenbird","Wood-Warblers","860"
"","5176","image-multi-choice","11","70608","0.0-1.0-10.0","{""Q0"":""Lincoln's Sparrow""}","Lincoln's Sparrow","New World Sparrows and Allies","903"
"","3977","image-multi-choice","12","75595","0.0-1.0-11.0","{""Q0"":""Townsend's Warbler""}","Townsend's Warbler","Wood-Warblers","881"
"","2671","image-multi-choice","13","79278","0.0-1.0-12.0","{""Q0"":""Fox Sparrow""}","Fox Sparrow","New World Sparrows and Allies","901"
"","3318","image-multi-choice","14","83607","0.0-1.0-13.0","{""Q0"":""Blackburnian Warbler""}","Blackburnian Warbler","Wood-Warblers","874"
"","3081","image-multi-choice","15","87699","0.0-1.0-14.0","{""Q0"":""Vesper Sparrow""}","Vesper Sparrow","New World Sparrows and Allies","898"
"","4069","image-multi-choice","16","92780","0.0-1.0-15.0","{""Q0"":""Black-and-white Warbler""}","Black-and-white Warbler","Wood-Warblers","864"
"","4086","image-multi-choice","17","97875","0.0-1.0-16.0","{""Q0"":""Orange-crowned Warbler""}","Nashville Warbler","Wood-Warblers","868"
"","6452","image-multi-choice","18","105339","0.0-1.0-17.0","{""Q0"":""Song Sparrow""}","Lincoln's Sparrow","New World Sparrows and Allies","903"
"","6215","image-multi-choice","19","112569","0.0-1.0-18.0","{""Q0"":""Orange-crowned Warbler""}","Nashville Warbler","Wood-Warblers","868"
"","2888","image-multi-choice","20","116467","0.0-1.0-19.0","{""Q0"":""Lark Sparrow""}","Lark Sparrow","New World Sparrows and Allies","899"
"","3289","image-multi-choice","21","120767","0.0-1.0-20.0","{""Q0"":""Magnolia Warbler""}","Magnolia Warbler","Wood-Warblers","758"
"","2862","image-multi-choice","22","124642","0.0-1.0-21.0","{""Q0"":""Townsend's Warbler""}","Townsend's Warbler","Wood-Warblers","881"
"","7080","image-multi-choice","23","132731","0.0-1.0-22.0","{""Q0"":""Swamp Sparrow""}","Swamp Sparrow","New World Sparrows and Allies","904"
"","3968","image-multi-choice","24","137711","0.0-1.0-23.0","{""Q0"":""Orange-crowned Warbler""}","Tennessee Warbler","Wood-Warblers","866"
"","2584","image-multi-choice","25","141307","0.0-1.0-24.0","{""Q0"":""Ovenbird""}","Ovenbird","Wood-Warblers","860"
"","2268","image-multi-choice","26","144587","0.0-1.0-25.0","{""Q0"":""White-crowned Sparrow""}","White-crowned Sparrow","New World Sparrows and Allies","766"
"","2794","image-multi-choice","27","148393","0.0-1.0-26.0","{""Q0"":""Vesper Sparrow""}","Vesper Sparrow","New World Sparrows and Allies","898"
"","3195","image-multi-choice","28","152599","0.0-1.0-27.0","{""Q0"":""Orange-crowned Warbler""}","Orange-crowned Warbler","Wood-Warblers","867"
"","2563","image-multi-choice","29","156173","0.0-1.0-28.0","{""Q0"":""American Tree Sparrow""}","American Tree Sparrow","New World Sparrows and Allies","894"
"","4130","image-multi-choice","30","161315","0.0-1.0-29.0","{""Q0"":""Orange-crowned Warbler""}","Tennessee Warbler","Wood-Warblers","866"
"","3352","image-multi-choice","31","165678","0.0-1.0-30.0","{""Q0"":""Magnolia Warbler""}","Magnolia Warbler","Wood-Warblers","758"
"","2810","image-multi-choice","32","169497","0.0-1.0-31.0","{""Q0"":""Blackburnian Warbler""}","Blackburnian Warbler","Wood-Warblers","874"
"","5298","image-multi-choice","33","175808","0.0-1.0-32.0","{""Q0"":""Tennessee Warbler""}","Tennessee Warbler","Wood-Warblers","866"
"","3343","image-multi-choice","34","180164","0.0-1.0-33.0","{""Q0"":""Vesper Sparrow""}","Vesper Sparrow","New World Sparrows and Allies","898"
"","2769","image-multi-choice","35","183943","0.0-1.0-34.0","{""Q0"":""Orange-crowned Warbler""}","Orange-crowned Warbler","Wood-Warblers","867"
"","2107","image-multi-choice","36","187061","0.0-1.0-35.0","{""Q0"":""White-crowned Sparrow""}","White-crowned Sparrow","New World Sparrows and Allies","766"
"","4396","image-multi-choice","37","192467","0.0-1.0-36.0","{""Q0"":""Fox Sparrow""}","Fox Sparrow","New World Sparrows and Allies","901"
"","4525","image-multi-choice","38","198003","0.0-1.0-37.0","{""Q0"":""Swamp Sparrow""}","Swamp Sparrow","New World Sparrows and Allies","904"
"","2307","image-multi-choice","39","201321","0.0-1.0-38.0","{""Q0"":""Yellow Warbler""}","Yellow Warbler","Wood-Warblers","875"
"","4713","image-multi-choice","40","207045","0.0-1.0-39.0","{""Q0"":""Black-and-white Warbler""}","Black-and-white Warbler","Wood-Warblers","864"
"","3427","image-multi-choice","41","211483","0.0-1.0-40.0","{""Q0"":""Fox Sparrow""}","Fox Sparrow","New World Sparrows and Allies","901"
"","5751","image-multi-choice","42","218244","0.0-1.0-41.0","{""Q0"":""Northern Waterthrush""}","Northern Waterthrush","Wood-Warblers","862"
"","8757","image-multi-choice","43","228012","0.0-1.0-42.0","{""Q0"":""Nashville Warbler""}","Nashville Warbler","Wood-Warblers","868"
"","2438","image-multi-choice","44","231460","0.0-1.0-43.0","{""Q0"":""Blackburnian Warbler""}","Blackburnian Warbler","Wood-Warblers","874"
"","2756","image-multi-choice","45","235228","0.0-1.0-44.0","{""Q0"":""Orange-crowned Warbler""}","Orange-crowned Warbler","Wood-Warblers","867"
"","2422","image-multi-choice","46","238660","0.0-1.0-45.0","{""Q0"":""Blackburnian Warbler""}","Blackburnian Warbler","Wood-Warblers","874"
"","2522","image-multi-choice","47","242194","0.0-1.0-46.0","{""Q0"":""Orange-crowned Warbler""}","Nashville Warbler","Wood-Warblers","868"
"","3901","image-multi-choice","48","247106","0.0-1.0-47.0","{""Q0"":""Northern Waterthrush""}","Northern Waterthrush","Wood-Warblers","862"
"","3870","image-multi-choice","49","251986","0.0-1.0-48.0","{""Q0"":""Fox Sparrow""}","Fox Sparrow","New World Sparrows and Allies","901"
"","5083","image-multi-choice","50","258080","0.0-1.0-49.0","{""Q0"":""Swamp Sparrow""}","Swamp Sparrow","New World Sparrows and Allies","904"
"","4417","image-multi-choice","51","263509","0.0-1.0-50.0","{""Q0"":""Nashville Warbler""}","Nashville Warbler","Wood-Warblers","868"
"","2871","image-multi-choice","52","267391","0.0-1.0-51.0","{""Q0"":""Black-and-white Warbler""}","Black-and-white Warbler","Wood-Warblers","864"
"","2509","image-multi-choice","53","270910","0.0-1.0-52.0","{""Q0"":""American Tree Sparrow""}","American Tree Sparrow","New World Sparrows and Allies","894"
"","2516","image-multi-choice","54","274436","0.0-1.0-53.0","{""Q0"":""Black-and-white Warbler""}","Black-and-white Warbler","Wood-Warblers","864"
"","3520","image-multi-choice","55","278967","0.0-1.0-54.0","{""Q0"":""Townsend's Warbler""}","Townsend's Warbler","Wood-Warblers","881"
"","3110","image-multi-choice","56","283089","0.0-1.0-55.0","{""Q0"":""Lark Sparrow""}","Lark Sparrow","New World Sparrows and Allies","899"
"","2593","image-multi-choice","57","286693","0.0-1.0-56.0","{""Q0"":""Ovenbird""}","Ovenbird","Wood-Warblers","860"
"","3050","image-multi-choice","58","290753","0.0-1.0-57.0","{""Q0"":""Song Sparrow""}","Song Sparrow","New World Sparrows and Allies","902"
"","4813","image-multi-choice","59","296578","0.0-1.0-58.0","{""Q0"":""Chipping Sparrow""}","Chipping Sparrow","New World Sparrows and Allies","769"
"","2445","image-multi-choice","60","311788","0.0-1.0-59.0","{""Q0"":""Black-and-white Warbler""}","Black-and-white Warbler","Wood-Warblers","864"
"","3654","image-multi-choice","61","316453","0.0-1.0-60.0","{""Q0"":""Chipping Sparrow""}","Chipping Sparrow","New World Sparrows and Allies","769"
"","6489","image-multi-choice","62","323955","0.0-1.0-61.0","{""Q0"":""Swamp Sparrow""}","Swamp Sparrow","New World Sparrows and Allies","904"
"","8278","image-multi-choice","63","333243","0.0-1.0-62.0","{""Q0"":""Nashville Warbler""}","Nashville Warbler","Wood-Warblers","868"
"","6716","image-multi-choice","64","340969","0.0-1.0-63.0","{""Q0"":""Lincoln's Sparrow""}","Lincoln's Sparrow","New World Sparrows and Allies","903"
"","3680","image-multi-choice","65","345663","0.0-1.0-64.0","{""Q0"":""Black-and-white Warbler""}","Black-and-white Warbler","Wood-Warblers","864"
"","2656","image-multi-choice","66","349330","0.0-1.0-65.0","{""Q0"":""Fox Sparrow""}","Fox Sparrow","New World Sparrows and Allies","901"
"","2691","image-multi-choice","67","353033","0.0-1.0-66.0","{""Q0"":""Townsend's Warbler""}","Townsend's Warbler","Wood-Warblers","881"
"","3095","image-multi-choice","68","357139","0.0-1.0-67.0","{""Q0"":""Yellow Warbler""}","Yellow Warbler","Wood-Warblers","875"
"","7134","image-multi-choice","69","365284","0.0-1.0-68.0","{""Q0"":""Tennessee Warbler""}","Tennessee Warbler","Wood-Warblers","866"
"","2593","image-multi-choice","70","368887","0.0-1.0-69.0","{""Q0"":""Ovenbird""}","Ovenbird","Wood-Warblers","860"
"","2424","image-multi-choice","71","372321","0.0-1.0-70.0","{""Q0"":""Townsend's Warbler""}","Townsend's Warbler","Wood-Warblers","881"
"","2376","image-multi-choice","72","375709","0.0-1.0-71.0","{""Q0"":""Black-and-white Warbler""}","Black-and-white Warbler","Wood-Warblers","864"
"","3081","image-multi-choice","73","379807","0.0-1.0-72.0","{""Q0"":""Song Sparrow""}","Song Sparrow","New World Sparrows and Allies","902"
"","2802","image-multi-choice","74","383619","0.0-1.0-73.0","{""Q0"":""Northern Waterthrush""}","Northern Waterthrush","Wood-Warblers","862"
"","5339","image-multi-choice","75","389969","0.0-1.0-74.0","{""Q0"":""Swamp Sparrow""}","Swamp Sparrow","New World Sparrows and Allies","904"
"","5882","image-multi-choice","76","396861","0.0-1.0-75.0","{""Q0"":""White-crowned Sparrow""}","White-crowned Sparrow","New World Sparrows and Allies","766"
"","1942","image-multi-choice","77","399816","0.0-1.0-76.0","{""Q0"":""White-throated Sparrow""}","White-throated Sparrow","New World Sparrows and Allies","764"
"","4717","image-multi-choice","78","405545","0.0-1.0-77.0","{""Q0"":""Townsend's Warbler""}","Townsend's Warbler","Wood-Warblers","881"
"","3497","image-multi-choice","79","410053","0.0-1.0-78.0","{""Q0"":""Vesper Sparrow""}","Vesper Sparrow","New World Sparrows and Allies","898"
"","2780","image-multi-choice","80","413843","0.0-1.0-79.0","{""Q0"":""White-throated Sparrow""}","White-throated Sparrow","New World Sparrows and Allies","764"
"","2475","image-multi-choice","81","417329","0.0-1.0-80.0","{""Q0"":""Northern Waterthrush""}","Northern Waterthrush","Wood-Warblers","862"
"","2245","image-multi-choice","82","420585","0.0-1.0-81.0","{""Q0"":""Yellow Warbler""}","Yellow Warbler","Wood-Warblers","875"
"","5455","image-multi-choice","83","427052","0.0-1.0-82.0","{""Q0"":""Orange-crowned Warbler""}","Nashville Warbler","Wood-Warblers","868"
"","3445","image-multi-choice","84","431507","0.0-1.0-83.0","{""Q0"":""Lark Sparrow""}","Lark Sparrow","New World Sparrows and Allies","899"
"","3776","image-multi-choice","85","436293","0.0-1.0-84.0","{""Q0"":""Orange-crowned Warbler""}","Orange-crowned Warbler","Wood-Warblers","867"
"","6716","image-multi-choice","86","444020","0.0-1.0-85.0","{""Q0"":""Orange-crowned Warbler""}","Nashville Warbler","Wood-Warblers","868"
"","3653","image-multi-choice","87","448683","0.0-1.0-86.0","{""Q0"":""Black-and-white Warbler""}","Black-and-white Warbler","Wood-Warblers","864"
"","6870","image-multi-choice","88","456563","0.0-1.0-87.0","{""Q0"":""Nashville Warbler""}","Nashville Warbler","Wood-Warblers","868"
"","6864","image-multi-choice","89","464437","0.0-1.0-88.0","{""Q0"":""Ovenbird""}","Ovenbird","Wood-Warblers","860"
"","2168","image-multi-choice","90","467616","0.0-1.0-89.0","{""Q0"":""Black-and-white Warbler""}","Black-and-white Warbler","Wood-Warblers","864"
"","3058","image-multi-choice","91","471683","0.0-1.0-90.0","{""Q0"":""Chipping Sparrow""}","Chipping Sparrow","New World Sparrows and Allies","769"
"","2462","image-multi-choice","92","475155","0.0-1.0-91.0","{""Q0"":""Orange-crowned Warbler""}","Tennessee Warbler","Wood-Warblers","866"
"","2021","image-multi-choice","93","478187","0.0-1.0-92.0","{""Q0"":""White-throated Sparrow""}","White-throated Sparrow","New World Sparrows and Allies","764"
"","4748","image-multi-choice","94","483947","0.0-1.0-93.0","{""Q0"":""Song Sparrow""}","Song Sparrow","New World Sparrows and Allies","902"
"","2208","image-multi-choice","95","487165","0.0-1.0-94.0","{""Q0"":""Blackburnian Warbler""}","Blackburnian Warbler","Wood-Warblers","874"
"","4843","image-multi-choice","96","493020","0.0-1.0-95.0","{""Q0"":""American Tree Sparrow""}","American Tree Sparrow","New World Sparrows and Allies","894"
"","1899","image-multi-choice","97","495929","0.0-1.0-96.0","{""Q0"":""White-throated Sparrow""}","White-throated Sparrow","New World Sparrows and Allies","764"
"","2747","image-multi-choice","98","499687","0.0-1.0-97.0","{""Q0"":""Orange-crowned Warbler""}","Orange-crowned Warbler","Wood-Warblers","867"
"","1843","image-multi-choice","99","502541","0.0-1.0-98.0","{""Q0"":""Yellow Warbler""}","Yellow Warbler","Wood-Warblers","875"
"","2516","image-multi-choice","100","506067","0.0-1.0-99.0","{""Q0"":""Fox Sparrow""}","Fox Sparrow","New World Sparrows and Allies","901"
"","2926","image-multi-choice","101","510003","0.0-1.0-100.0","{""Q0"":""Chipping Sparrow""}","Chipping Sparrow","New World Sparrows and Allies","769"
"","3120","image-multi-choice","102","514133","0.0-1.0-101.0","{""Q0"":""Northern Waterthrush""}","Northern Waterthrush","Wood-Warblers","862"
"","3020","image-multi-choice","103","518163","0.0-1.0-102.0","{""Q0"":""Swamp Sparrow""}","Swamp Sparrow","New World Sparrows and Allies","904"
"","2044","image-multi-choice","104","521217","0.0-1.0-103.0","{""Q0"":""Northern Waterthrush""}","Northern Waterthrush","Wood-Warblers","862"
"","2098","image-multi-choice","105","524326","0.0-1.0-104.0","{""Q0"":""Yellow Warbler""}","Yellow Warbler","Wood-Warblers","875"
"","5045","image-multi-choice","106","530381","0.0-1.0-105.0","{""Q0"":""Magnolia Warbler""}","Magnolia Warbler","Wood-Warblers","758"
"","5302","image-multi-choice","107","536693","0.0-1.0-106.0","{""Q0"":""Townsend's Warbler""}","Townsend's Warbler","Wood-Warblers","881"
"","4024","image-multi-choice","108","541727","0.0-1.0-107.0","{""Q0"":""Swamp Sparrow""}","Swamp Sparrow","New World Sparrows and Allies","904"
"","2361","image-multi-choice","109","545099","0.0-1.0-108.0","{""Q0"":""Fox Sparrow""}","Fox Sparrow","New World Sparrows and Allies","901"
"","1665","image-multi-choice","110","547776","0.0-1.0-109.0","{""Q0"":""Yellow Warbler""}","Yellow Warbler","Wood-Warblers","875"
"","2732","image-multi-choice","111","551517","0.0-1.0-110.0","{""Q0"":""Lincoln's Sparrow""}","Lincoln's Sparrow","New World Sparrows and Allies","903"
"","2298","image-multi-choice","112","554827","0.0-1.0-111.0","{""Q0"":""Townsend's Warbler""}","Townsend's Warbler","Wood-Warblers","881"
"","2130","image-multi-choice","113","557968","0.0-1.0-112.0","{""Q0"":""White-crowned Sparrow""}","White-crowned Sparrow","New World Sparrows and Allies","766"
"","4704","image-multi-choice","114","563683","0.0-1.0-113.0","{""Q0"":""Blackburnian Warbler""}","Blackburnian Warbler","Wood-Warblers","874"
"","2376","image-multi-choice","115","567072","0.0-1.0-114.0","{""Q0"":""Orange-crowned Warbler""}","Nashville Warbler","Wood-Warblers","868"
"","5136","image-multi-choice","116","573220","0.0-1.0-115.0","{""Q0"":""Tennessee Warbler""}","Tennessee Warbler","Wood-Warblers","866"
"","2346","image-multi-choice","117","576576","0.0-1.0-116.0","{""Q0"":""Vesper Sparrow""}","Vesper Sparrow","New World Sparrows and Allies","898"
"","5812","image-multi-choice","118","583397","0.0-1.0-117.0","{""Q0"":""Swamp Sparrow""}","Swamp Sparrow","New World Sparrows and Allies","904"
"","1811","image-multi-choice","119","586220","0.0-1.0-118.0","{""Q0"":""White-crowned Sparrow""}","White-crowned Sparrow","New World Sparrows and Allies","766"
"","3359","image-multi-choice","120","599104","0.0-1.0-119.0","{""Q0"":""Blackburnian Warbler""}","Blackburnian Warbler","Wood-Warblers","874"
"","3660","image-multi-choice","121","603775","0.0-1.0-120.0","{""Q0"":""Fox Sparrow""}","Fox Sparrow","New World Sparrows and Allies","901"
"","2414","image-multi-choice","122","607201","0.0-1.0-121.0","{""Q0"":""Vesper Sparrow""}","Vesper Sparrow","New World Sparrows and Allies","898"
"","2159","image-multi-choice","123","610371","0.0-1.0-122.0","{""Q0"":""Yellow Warbler""}","Yellow Warbler","Wood-Warblers","875"
"","2979","image-multi-choice","124","614363","0.0-1.0-123.0","{""Q0"":""Song Sparrow""}","Song Sparrow","New World Sparrows and Allies","902"
"","2847","image-multi-choice","125","618221","0.0-1.0-124.0","{""Q0"":""Townsend's Warbler""}","Townsend's Warbler","Wood-Warblers","881"
"","1928","image-multi-choice","126","621159","0.0-1.0-125.0","{""Q0"":""White-crowned Sparrow""}","White-crowned Sparrow","New World Sparrows and Allies","766"
"","2493","image-multi-choice","127","624663","0.0-1.0-126.0","{""Q0"":""Song Sparrow""}","Song Sparrow","New World Sparrows and Allies","902"
"","2848","image-multi-choice","128","628522","0.0-1.0-127.0","{""Q0"":""Ovenbird""}","Ovenbird","Wood-Warblers","860"
"","4433","image-multi-choice","129","633966","0.0-1.0-128.0","{""Q0"":""Magnolia Warbler""}","Magnolia Warbler","Wood-Warblers","758"
"","5262","image-multi-choice","130","640239","0.0-1.0-129.0","{""Q0"":""Swamp Sparrow""}","Swamp Sparrow","New World Sparrows and Allies","904"
"","3126","image-multi-choice","131","644378","0.0-1.0-130.0","{""Q0"":""Lark Sparrow""}","Lark Sparrow","New World Sparrows and Allies","899"
"","3382","image-multi-choice","132","648771","0.0-1.0-131.0","{""Q0"":""Magnolia Warbler""}","Magnolia Warbler","Wood-Warblers","758"
"","4086","image-multi-choice","133","653866","0.0-1.0-132.0","{""Q0"":""White-throated Sparrow""}","White-throated Sparrow","New World Sparrows and Allies","764"
"","3384","image-multi-choice","134","658260","0.0-1.0-133.0","{""Q0"":""Magnolia Warbler""}","Magnolia Warbler","Wood-Warblers","758"
"","2022","image-multi-choice","135","661292","0.0-1.0-134.0","{""Q0"":""Yellow Warbler""}","Yellow Warbler","Wood-Warblers","875"
"","4372","image-multi-choice","136","666674","0.0-1.0-135.0","{""Q0"":""Tennessee Warbler""}","Tennessee Warbler","Wood-Warblers","866"
"","2549","image-multi-choice","137","670233","0.0-1.0-136.0","{""Q0"":""Ovenbird""}","Ovenbird","Wood-Warblers","860"
"","2429","image-multi-choice","138","673674","0.0-1.0-137.0","{""Q0"":""Black-and-white Warbler""}","Black-and-white Warbler","Wood-Warblers","864"
"","3195","image-multi-choice","139","677880","0.0-1.0-138.0","{""Q0"":""Chipping Sparrow""}","Chipping Sparrow","New World Sparrows and Allies","769"
"","2346","image-multi-choice","140","681236","0.0-1.0-139.0","{""Q0"":""Northern Waterthrush""}","Northern Waterthrush","Wood-Warblers","862"
"","2270","image-multi-choice","141","684517","0.0-1.0-140.0","{""Q0"":""Vesper Sparrow""}","Vesper Sparrow","New World Sparrows and Allies","898"
"","2083","image-multi-choice","142","687610","0.0-1.0-141.0","{""Q0"":""White-throated Sparrow""}","White-throated Sparrow","New World Sparrows and Allies","764"
"","3018","image-multi-choice","143","691638","0.0-1.0-142.0","{""Q0"":""Magnolia Warbler""}","Magnolia Warbler","Wood-Warblers","758"
"","2254","image-multi-choice","144","694902","0.0-1.0-143.0","{""Q0"":""Blackburnian Warbler""}","Blackburnian Warbler","Wood-Warblers","874"
"","2592","image-multi-choice","145","698506","0.0-1.0-144.0","{""Q0"":""Lark Sparrow""}","Lark Sparrow","New World Sparrows and Allies","899"
"","6127","image-multi-choice","146","705644","0.0-1.0-145.0","{""Q0"":""Fox Sparrow""}","Song Sparrow","New World Sparrows and Allies","902"
"","2138","image-multi-choice","147","708792","0.0-1.0-146.0","{""Q0"":""White-crowned Sparrow""}","White-crowned Sparrow","New World Sparrows and Allies","766"
"","11657","image-multi-choice","148","721460","0.0-1.0-147.0","{""Q0"":""Swamp Sparrow""}","Chipping Sparrow","New World Sparrows and Allies","769"
"","4449","image-multi-choice","149","726920","0.0-1.0-148.0","{""Q0"":""Swamp Sparrow""}","Swamp Sparrow","New World Sparrows and Allies","904"
"","2315","image-multi-choice","150","730246","0.0-1.0-149.0","{""Q0"":""Fox Sparrow""}","Fox Sparrow","New World Sparrows and Allies","901"
"","1741","image-multi-choice","151","732998","0.0-1.0-150.0","{""Q0"":""Yellow Warbler""}","Yellow Warbler","Wood-Warblers","875"
"","1874","image-multi-choice","152","735882","0.0-1.0-151.0","{""Q0"":""White-crowned Sparrow""}","White-crowned Sparrow","New World Sparrows and Allies","766"
"","2324","image-multi-choice","153","739216","0.0-1.0-152.0","{""Q0"":""Fox Sparrow""}","Song Sparrow","New World Sparrows and Allies","902"
"","2184","image-multi-choice","154","742410","0.0-1.0-153.0","{""Q0"":""Northern Waterthrush""}","Northern Waterthrush","Wood-Warblers","862"
"","1960","image-multi-choice","155","745380","0.0-1.0-154.0","{""Q0"":""White-crowned Sparrow""}","White-crowned Sparrow","New World Sparrows and Allies","766"
"","1542","image-multi-choice","156","747933","0.0-1.0-155.0","{""Q0"":""Yellow Warbler""}","Yellow Warbler","Wood-Warblers","875"
"","2755","image-multi-choice","157","751698","0.0-1.0-156.0","{""Q0"":""White-throated Sparrow""}","White-throated Sparrow","New World Sparrows and Allies","764"
"","1728","image-multi-choice","158","754436","0.0-1.0-157.0","{""Q0"":""White-crowned Sparrow""}","White-crowned Sparrow","New World Sparrows and Allies","766"
"","2238","image-multi-choice","159","757684","0.0-1.0-158.0","{""Q0"":""Townsend's Warbler""}","Townsend's Warbler","Wood-Warblers","881"
"","2547","image-multi-choice","160","761242","0.0-1.0-159.0","{""Q0"":""Orange-crowned Warbler""}","Tennessee Warbler","Wood-Warblers","866"
"","2701","image-multi-choice","161","764954","0.0-1.0-160.0","{""Q0"":""White-throated Sparrow""}","White-throated Sparrow","New World Sparrows and Allies","764"
"","2446","image-multi-choice","162","768410","0.0-1.0-161.0","{""Q0"":""Fox Sparrow""}","Fox Sparrow","New World Sparrows and Allies","901"
"","3877","image-multi-choice","163","773298","0.0-1.0-162.0","{""Q0"":""Song Sparrow""}","Song Sparrow","New World Sparrows and Allies","902"
"","1812","image-multi-choice","164","776120","0.0-1.0-163.0","{""Q0"":""White-crowned Sparrow""}","White-crowned Sparrow","New World Sparrows and Allies","766"
"","6972","image-multi-choice","165","784103","0.0-1.0-164.0","{""Q0"":""Song Sparrow""}","Song Sparrow","New World Sparrows and Allies","902"
"","2469","image-multi-choice","166","787582","0.0-1.0-165.0","{""Q0"":""American Tree Sparrow""}","American Tree Sparrow","New World Sparrows and Allies","894"
"","2586","image-multi-choice","167","791178","0.0-1.0-166.0","{""Q0"":""Orange-crowned Warbler""}","Orange-crowned Warbler","Wood-Warblers","867"
"","7990","image-multi-choice","168","800180","0.0-1.0-167.0","{""Q0"":""Lincoln's Sparrow""}","Lincoln's Sparrow","New World Sparrows and Allies","903"
"","3838","image-multi-choice","169","805028","0.0-1.0-168.0","{""Q0"":""Blackburnian Warbler""}","Blackburnian Warbler","Wood-Warblers","874"
"","2407","image-multi-choice","170","808446","0.0-1.0-169.0","{""Q0"":""White-throated Sparrow""}","White-throated Sparrow","New World Sparrows and Allies","764"
"","2291","image-multi-choice","171","811748","0.0-1.0-170.0","{""Q0"":""Fox Sparrow""}","Fox Sparrow","New World Sparrows and Allies","901"
"","2432","image-multi-choice","172","815190","0.0-1.0-171.0","{""Q0"":""Chipping Sparrow""}","Chipping Sparrow","New World Sparrows and Allies","769"
"","5100","image-multi-choice","173","821300","0.0-1.0-172.0","{""Q0"":""Swamp Sparrow""}","Swamp Sparrow","New World Sparrows and Allies","904"
"","3584","image-multi-choice","174","825894","0.0-1.0-173.0","{""Q0"":""Lincoln's Sparrow""}","Lincoln's Sparrow","New World Sparrows and Allies","903"
"","2506","image-multi-choice","175","829412","0.0-1.0-174.0","{""Q0"":""Swamp Sparrow""}","Swamp Sparrow","New World Sparrows and Allies","904"
"","2554","image-multi-choice","176","832978","0.0-1.0-175.0","{""Q0"":""Townsend's Warbler""}","Townsend's Warbler","Wood-Warblers","881"
"","2338","image-multi-choice","177","836326","0.0-1.0-176.0","{""Q0"":""American Tree Sparrow""}","American Tree Sparrow","New World Sparrows and Allies","894"
"","3096","image-multi-choice","178","840432","0.0-1.0-177.0","{""Q0"":""Fox Sparrow""}","Fox Sparrow","New World Sparrows and Allies","901"
"","7620","image-multi-choice","179","849063","0.0-1.0-178.0","{""Q0"":""Song Sparrow""}","Lincoln's Sparrow","New World Sparrows and Allies","903"
"","2594","image-multi-choice","180","862666","0.0-1.0-179.0","{""Q0"":""Magnolia Warbler""}","Magnolia Warbler","Wood-Warblers","758"
"","5099","image-multi-choice","181","868776","0.0-1.0-180.0","{""Q0"":""Tennessee Warbler""}","Orange-crowned Warbler","Wood-Warblers","867"
"","6863","image-multi-choice","182","876649","0.0-1.0-181.0","{""Q0"":""Tennessee Warbler""}","Tennessee Warbler","Wood-Warblers","866"
"","3419","image-multi-choice","183","881079","0.0-1.0-182.0","{""Q0"":""Vesper Sparrow""}","Vesper Sparrow","New World Sparrows and Allies","898"
"","2672","image-multi-choice","184","884761","0.0-1.0-183.0","{""Q0"":""Blackburnian Warbler""}","Blackburnian Warbler","Wood-Warblers","874"
"","8280","image-multi-choice","185","894058","0.0-1.0-184.0","{""Q0"":""Lincoln's Sparrow""}","Lincoln's Sparrow","New World Sparrows and Allies","903"
"","3837","image-multi-choice","186","898905","0.0-1.0-185.0","{""Q0"":""Townsend's Warbler""}","Townsend's Warbler","Wood-Warblers","881"
"","2154","image-multi-choice","187","902069","0.0-1.0-186.0","{""Q0"":""Ovenbird""}","Ovenbird","Wood-Warblers","860"
"","2917","image-multi-choice","188","905997","0.0-1.0-187.0","{""Q0"":""Orange-crowned Warbler""}","Orange-crowned Warbler","Wood-Warblers","867"
"","2548","image-multi-choice","189","909555","0.0-1.0-188.0","{""Q0"":""Chipping Sparrow""}","Chipping Sparrow","New World Sparrows and Allies","769"
"","2827","image-multi-choice","190","913391","0.0-1.0-189.0","{""Q0"":""American Tree Sparrow""}","American Tree Sparrow","New World Sparrows and Allies","894"
"","5462","image-multi-choice","191","919863","0.0-1.0-190.0","{""Q0"":""Vesper Sparrow""}","Vesper Sparrow","New World Sparrows and Allies","898"
"","9686","image-multi-choice","192","930559","0.0-1.0-191.0","{""Q0"":""Song Sparrow""}","Lincoln's Sparrow","New World Sparrows and Allies","903"
"","4156","image-multi-choice","193","935725","0.0-1.0-192.0","{""Q0"":""Tennessee Warbler""}","Tennessee Warbler","Wood-Warblers","866"
"","5950","image-multi-choice","194","942685","0.0-1.0-193.0","{""Q0"":""American Tree Sparrow""}","American Tree Sparrow","New World Sparrows and Allies","894"
"","2400","image-multi-choice","195","946095","0.0-1.0-194.0","{""Q0"":""Lark Sparrow""}","Lark Sparrow","New World Sparrows and Allies","899"
"","4341","image-multi-choice","196","951447","0.0-1.0-195.0","{""Q0"":""Tennessee Warbler""}","Tennessee Warbler","Wood-Warblers","866"
"","2741","image-multi-choice","197","955199","0.0-1.0-196.0","{""Q0"":""Northern Waterthrush""}","Northern Waterthrush","Wood-Warblers","862"
"","2129","image-multi-choice","198","958339","0.0-1.0-197.0","{""Q0"":""White-throated Sparrow""}","White-throated Sparrow","New World Sparrows and Allies","764"
"","1835","image-multi-choice","199","961185","0.0-1.0-198.0","{""Q0"":""Yellow Warbler""}","Yellow Warbler","Wood-Warblers","875"
"","3940","image-multi-choice","200","966135","0.0-1.0-199.0","{""Q0"":""White-crowned Sparrow""}","White-crowned Sparrow","New World Sparrows and Allies","766"
"","4549","image-multi-choice","201","971696","0.0-1.0-200.0","{""Q0"":""American Tree Sparrow""}","American Tree Sparrow","New World Sparrows and Allies","894"
"","2383","image-multi-choice","202","975089","0.0-1.0-201.0","{""Q0"":""Ovenbird""}","Ovenbird","Wood-Warblers","860"
"","2748","image-multi-choice","203","978847","0.0-1.0-202.0","{""Q0"":""Magnolia Warbler""}","Magnolia Warbler","Wood-Warblers","758"
"","6198","image-multi-choice","204","986055","0.0-1.0-203.0","{""Q0"":""Black-and-white Warbler""}","Black-and-white Warbler","Wood-Warblers","864"
"","2539","image-multi-choice","205","989605","0.0-1.0-204.0","{""Q0"":""Northern Waterthrush""}","Northern Waterthrush","Wood-Warblers","862"
"","2850","image-multi-choice","206","993465","0.0-1.0-205.0","{""Q0"":""American Tree Sparrow""}","American Tree Sparrow","New World Sparrows and Allies","894"
"","2894","image-multi-choice","207","997369","0.0-1.0-206.0","{""Q0"":""Magnolia Warbler""}","Magnolia Warbler","Wood-Warblers","758"
"","3282","image-multi-choice","208","1001661","0.0-1.0-207.0","{""Q0"":""Blackburnian Warbler""}","Blackburnian Warbler","Wood-Warblers","874"
"","5278","image-multi-choice","209","1007950","0.0-1.0-208.0","{""Q0"":""Swamp Sparrow""}","Swamp Sparrow","New World Sparrows and Allies","904"
"","2425","image-multi-choice","210","1011384","0.0-1.0-209.0","{""Q0"":""American Tree Sparrow""}","American Tree Sparrow","New World Sparrows and Allies","894"
"","2291","image-multi-choice","211","1014686","0.0-1.0-210.0","{""Q0"":""Ovenbird""}","Ovenbird","Wood-Warblers","860"
"","5144","image-multi-choice","212","1020841","0.0-1.0-211.0","{""Q0"":""Swamp Sparrow""}","Swamp Sparrow","New World Sparrows and Allies","904"
"","2888","image-multi-choice","213","1024740","0.0-1.0-212.0","{""Q0"":""Song Sparrow""}","Song Sparrow","New World Sparrows and Allies","902"
"","2701","image-multi-choice","214","1028452","0.0-1.0-213.0","{""Q0"":""Blackburnian Warbler""}","Blackburnian Warbler","Wood-Warblers","874"
"","2369","image-multi-choice","215","1031831","0.0-1.0-214.0","{""Q0"":""Vesper Sparrow""}","Vesper Sparrow","New World Sparrows and Allies","898"
"","2790","image-multi-choice","216","1035635","0.0-1.0-215.0","{""Q0"":""Blackburnian Warbler""}","Blackburnian Warbler","Wood-Warblers","874"
"","5386","image-multi-choice","217","1042032","0.0-1.0-216.0","{""Q0"":""Song Sparrow""}","Song Sparrow","New World Sparrows and Allies","902"
"","5424","image-multi-choice","218","1048465","0.0-1.0-217.0","{""Q0"":""Tennessee Warbler""}","Tennessee Warbler","Wood-Warblers","866"
"","3058","image-multi-choice","219","1052533","0.0-1.0-218.0","{""Q0"":""Black-and-white Warbler""}","Black-and-white Warbler","Wood-Warblers","864"
"","2452","image-multi-choice","220","1055997","0.0-1.0-219.0","{""Q0"":""Ovenbird""}","Ovenbird","Wood-Warblers","860"
"","2078","image-multi-choice","221","1059085","0.0-1.0-220.0","{""Q0"":""White-throated Sparrow""}","White-throated Sparrow","New World Sparrows and Allies","764"
"","3018","image-multi-choice","222","1063113","0.0-1.0-221.0","{""Q0"":""Vesper Sparrow""}","Vesper Sparrow","New World Sparrows and Allies","898"
"","2192","image-multi-choice","223","1066315","0.0-1.0-222.0","{""Q0"":""American Tree Sparrow""}","American Tree Sparrow","New World Sparrows and Allies","894"
"","1797","image-multi-choice","224","1069123","0.0-1.0-223.0","{""Q0"":""Yellow Warbler""}","Yellow Warbler","Wood-Warblers","875"
"","2516","image-multi-choice","225","1072649","0.0-1.0-224.0","{""Q0"":""Northern Waterthrush""}","Northern Waterthrush","Wood-Warblers","862"
"","2726","image-multi-choice","226","1076385","0.0-1.0-225.0","{""Q0"":""Blackburnian Warbler""}","Blackburnian Warbler","Wood-Warblers","874"
"","1704","image-multi-choice","227","1079099","0.0-1.0-226.0","{""Q0"":""White-throated Sparrow""}","White-throated Sparrow","New World Sparrows and Allies","764"
"","4434","image-multi-choice","228","1084543","0.0-1.0-227.0","{""Q0"":""Song Sparrow""}","Song Sparrow","New World Sparrows and Allies","902"
"","2137","image-multi-choice","229","1087691","0.0-1.0-228.0","{""Q0"":""Ovenbird""}","Ovenbird","Wood-Warblers","860"
"","2322","image-multi-choice","230","1091023","0.0-1.0-229.0","{""Q0"":""Townsend's Warbler""}","Townsend's Warbler","Wood-Warblers","881"
"","3894","image-multi-choice","231","1095928","0.0-1.0-230.0","{""Q0"":""Nashville Warbler""}","Nashville Warbler","Wood-Warblers","868"
"","2152","image-multi-choice","232","1099092","0.0-1.0-231.0","{""Q0"":""Fox Sparrow""}","Fox Sparrow","New World Sparrows and Allies","901"
"","2098","image-multi-choice","233","1102200","0.0-1.0-232.0","{""Q0"":""Ovenbird""}","Ovenbird","Wood-Warblers","860"
"","2386","image-multi-choice","234","1105596","0.0-1.0-233.0","{""Q0"":""Magnolia Warbler""}","Magnolia Warbler","Wood-Warblers","758"
"","2269","image-multi-choice","235","1108874","0.0-1.0-234.0","{""Q0"":""American Tree Sparrow""}","American Tree Sparrow","New World Sparrows and Allies","894"
"","2361","image-multi-choice","236","1112246","0.0-1.0-235.0","{""Q0"":""Blackburnian Warbler""}","Blackburnian Warbler","Wood-Warblers","874"
"","3220","image-multi-choice","237","1116476","0.0-1.0-236.0","{""Q0"":""Chipping Sparrow""}","Chipping Sparrow","New World Sparrows and Allies","769"
"","2741","image-multi-choice","238","1120226","0.0-1.0-237.0","{""Q0"":""Fox Sparrow""}","Fox Sparrow","New World Sparrows and Allies","901"
"","3383","image-multi-choice","239","1124620","0.0-1.0-238.0","{""Q0"":""Vesper Sparrow""}","Vesper Sparrow","New World Sparrows and Allies","898"
"","2732","image-multi-choice","240","1146545","0.0-1.0-239.0","{""Q0"":""Northern Waterthrush""}","Northern Waterthrush","Wood-Warblers","862"
"","2586","image-multi-choice","241","1150140","0.0-1.0-240.0","{""Q0"":""Lark Sparrow""}","Lark Sparrow","New World Sparrows and Allies","899"
"","5686","image-multi-choice","242","1156837","0.0-1.0-241.0","{""Q0"":""Orange-crowned Warbler""}","Nashville Warbler","Wood-Warblers","868"
"","2029","image-multi-choice","243","1159877","0.0-1.0-242.0","{""Q0"":""Ovenbird""}","Ovenbird","Wood-Warblers","860"
"","2058","image-multi-choice","244","1162978","0.0-1.0-243.0","{""Q0"":""Northern Waterthrush""}","Northern Waterthrush","Wood-Warblers","862"
"","2662","image-multi-choice","245","1166651","0.0-1.0-244.0","{""Q0"":""Orange-crowned Warbler""}","Orange-crowned Warbler","Wood-Warblers","867"
"","2570","image-multi-choice","246","1170232","0.0-1.0-245.0","{""Q0"":""Chipping Sparrow""}","Chipping Sparrow","New World Sparrows and Allies","769"
"","3419","image-multi-choice","247","1174663","0.0-1.0-246.0","{""Q0"":""Tennessee Warbler""}","Tennessee Warbler","Wood-Warblers","866"
"","1842","image-multi-choice","248","1177515","0.0-1.0-247.0","{""Q0"":""Yellow Warbler""}","Yellow Warbler","Wood-Warblers","875"
"","7390","image-multi-choice","249","1185915","0.0-1.0-248.0","{""Q0"":""Lincoln's Sparrow""}","Lincoln's Sparrow","New World Sparrows and Allies","903"
"","2754","image-multi-choice","250","1189681","0.0-1.0-249.0","{""Q0"":""Vesper Sparrow""}","Vesper Sparrow","New World Sparrows and Allies","898"
"","2083","image-multi-choice","251","1192775","0.0-1.0-250.0","{""Q0"":""Black-and-white Warbler""}","Black-and-white Warbler","Wood-Warblers","864"
"","2490","image-multi-choice","252","1196278","0.0-1.0-251.0","{""Q0"":""Song Sparrow""}","Song Sparrow","New World Sparrows and Allies","902"
"","3553","image-multi-choice","253","1200841","0.0-1.0-252.0","{""Q0"":""Chipping Sparrow""}","Chipping Sparrow","New World Sparrows and Allies","769"
"","2376","image-multi-choice","254","1204227","0.0-1.0-253.0","{""Q0"":""Magnolia Warbler""}","Magnolia Warbler","Wood-Warblers","758"
"","4184","image-multi-choice","255","1209423","0.0-1.0-254.0","{""Q0"":""Lincoln's Sparrow""}","Lincoln's Sparrow","New World Sparrows and Allies","903"
"","1920","image-multi-choice","256","1212355","0.0-1.0-255.0","{""Q0"":""White-throated Sparrow""}","White-throated Sparrow","New World Sparrows and Allies","764"
"","2122","image-multi-choice","257","1215487","0.0-1.0-256.0","{""Q0"":""Fox Sparrow""}","Fox Sparrow","New World Sparrows and Allies","901"
"","2370","image-multi-choice","258","1218867","0.0-1.0-257.0","{""Q0"":""Black-and-white Warbler""}","Black-and-white Warbler","Wood-Warblers","864"
"","3009","image-multi-choice","259","1222887","0.0-1.0-258.0","{""Q0"":""Chipping Sparrow""}","Chipping Sparrow","New World Sparrows and Allies","769"
"","3204","image-multi-choice","260","1227103","0.0-1.0-259.0","{""Q0"":""Tennessee Warbler""}","Orange-crowned Warbler","Wood-Warblers","867"
"","2144","image-multi-choice","261","1230257","0.0-1.0-260.0","{""Q0"":""Lark Sparrow""}","Lark Sparrow","New World Sparrows and Allies","899"
"","6020","image-multi-choice","262","1237287","0.0-1.0-261.0","{""Q0"":""Swamp Sparrow""}","Lincoln's Sparrow","New World Sparrows and Allies","903"
"","2888","image-multi-choice","263","1241185","0.0-1.0-262.0","{""Q0"":""Northern Waterthrush""}","Northern Waterthrush","Wood-Warblers","862"
"","4765","image-multi-choice","264","1246961","0.0-1.0-263.0","{""Q0"":""Nashville Warbler""}","Nashville Warbler","Wood-Warblers","868"
"","2072","image-multi-choice","265","1250047","0.0-1.0-264.0","{""Q0"":""Lark Sparrow""}","Lark Sparrow","New World Sparrows and Allies","899"
"","3220","image-multi-choice","266","1254277","0.0-1.0-265.0","{""Q0"":""Orange-crowned Warbler""}","Orange-crowned Warbler","Wood-Warblers","867"
"","2875","image-multi-choice","267","1258165","0.0-1.0-266.0","{""Q0"":""Magnolia Warbler""}","Magnolia Warbler","Wood-Warblers","758"
"","3243","image-multi-choice","268","1262419","0.0-1.0-267.0","{""Q0"":""Orange-crowned Warbler""}","Orange-crowned Warbler","Wood-Warblers","867"
"","1767","image-multi-choice","269","1265195","0.0-1.0-268.0","{""Q0"":""Yellow Warbler""}","Yellow Warbler","Wood-Warblers","875"
"","2165","image-multi-choice","270","1268373","0.0-1.0-269.0","{""Q0"":""Orange-crowned Warbler""}","Orange-crowned Warbler","Wood-Warblers","867"
"","6074","image-multi-choice","271","1275457","0.0-1.0-270.0","{""Q0"":""Vesper Sparrow""}","Lincoln's Sparrow","New World Sparrows and Allies","903"
"","2160","image-multi-choice","272","1278627","0.0-1.0-271.0","{""Q0"":""Lark Sparrow""}","Lark Sparrow","New World Sparrows and Allies","899"
"","4690","image-multi-choice","273","1284328","0.0-1.0-272.0","{""Q0"":""Lincoln's Sparrow""}","Lincoln's Sparrow","New World Sparrows and Allies","903"
"","5555","image-multi-choice","274","1290894","0.0-1.0-273.0","{""Q0"":""Nashville Warbler""}","Nashville Warbler","Wood-Warblers","868"
"","2461","image-multi-choice","275","1294367","0.0-1.0-274.0","{""Q0"":""Lark Sparrow""}","Lark Sparrow","New World Sparrows and Allies","899"
"","2197","image-multi-choice","276","1297575","0.0-1.0-275.0","{""Q0"":""Chipping Sparrow""}","Chipping Sparrow","New World Sparrows and Allies","769"
"","1695","image-multi-choice","277","1300280","0.0-1.0-276.0","{""Q0"":""White-throated Sparrow""}","White-throated Sparrow","New World Sparrows and Allies","764"
"","3546","image-multi-choice","278","1304836","0.0-1.0-277.0","{""Q0"":""Song Sparrow""}","Song Sparrow","New World Sparrows and Allies","902"
"","2601","image-multi-choice","279","1308448","0.0-1.0-278.0","{""Q0"":""Ovenbird""}","Ovenbird","Wood-Warblers","860"
"","2006","image-multi-choice","280","1311464","0.0-1.0-279.0","{""Q0"":""Lark Sparrow""}","Lark Sparrow","New World Sparrows and Allies","899"
"","2014","image-multi-choice","281","1314488","0.0-1.0-280.0","{""Q0"":""Chipping Sparrow""}","Chipping Sparrow","New World Sparrows and Allies","769"
"","2608","image-multi-choice","282","1318107","0.0-1.0-281.0","{""Q0"":""Lark Sparrow""}","Lark Sparrow","New World Sparrows and Allies","899"
"","2477","image-multi-choice","283","1321594","0.0-1.0-282.0","{""Q0"":""Song Sparrow""}","Song Sparrow","New World Sparrows and Allies","902"
"","4867","image-multi-choice","284","1327472","0.0-1.0-283.0","{""Q0"":""White-throated Sparrow""}","White-throated Sparrow","New World Sparrows and Allies","764"
"","2400","image-multi-choice","285","1330882","0.0-1.0-284.0","{""Q0"":""Magnolia Warbler""}","Magnolia Warbler","Wood-Warblers","758"
"","2653","image-multi-choice","286","1334547","0.0-1.0-285.0","{""Q0"":""Orange-crowned Warbler""}","Orange-crowned Warbler","Wood-Warblers","867"
"","2817","image-multi-choice","287","1338374","0.0-1.0-286.0","{""Q0"":""Lincoln's Sparrow""}","Lincoln's Sparrow","New World Sparrows and Allies","903"
"","2083","image-multi-choice","288","1341467","0.0-1.0-287.0","{""Q0"":""Lark Sparrow""}","Lark Sparrow","New World Sparrows and Allies","899"
"","2213","image-multi-choice","289","1344691","0.0-1.0-288.0","{""Q0"":""Townsend's Warbler""}","Townsend's Warbler","Wood-Warblers","881"
"","2300","image-multi-choice","290","1348001","0.0-1.0-289.0","{""Q0"":""Black-and-white Warbler""}","Black-and-white Warbler","Wood-Warblers","864"
"","3932","image-multi-choice","291","1352944","0.0-1.0-290.0","{""Q0"":""Tennessee Warbler""}","Tennessee Warbler","Wood-Warblers","866"
"","6869","image-multi-choice","292","1360823","0.0-1.0-291.0","{""Q0"":""American Tree Sparrow""}","American Tree Sparrow","New World Sparrows and Allies","894"
"","3452","image-multi-choice","293","1365285","0.0-1.0-292.0","{""Q0"":""Chipping Sparrow""}","Chipping Sparrow","New World Sparrows and Allies","769"
"","2261","image-multi-choice","294","1368557","0.0-1.0-293.0","{""Q0"":""Lark Sparrow""}","Lark Sparrow","New World Sparrows and Allies","899"
"","2313","image-multi-choice","295","1371881","0.0-1.0-294.0","{""Q0"":""Magnolia Warbler""}","Magnolia Warbler","Wood-Warblers","758"
"","1868","image-multi-choice","296","1374759","0.0-1.0-295.0","{""Q0"":""Yellow Warbler""}","Yellow Warbler","Wood-Warblers","875"
"","1873","image-multi-choice","297","1377643","0.0-1.0-296.0","{""Q0"":""White-crowned Sparrow""}","White-crowned Sparrow","New World Sparrows and Allies","766"
"","5809","image-multi-choice","298","1384463","0.0-1.0-297.0","{""Q0"":""Swamp Sparrow""}","Swamp Sparrow","New World Sparrows and Allies","904"
"","6783","image-multi-choice","299","1392259","0.0-1.0-298.0","{""Q0"":""Nashville Warbler""}","Orange-crowned Warbler","Wood-Warblers","867"
"","2618","image-multi-choice","300","1401616","0.0-1.0-299.0","{""Q0"":""Vesper Sparrow""}","Vesper Sparrow","New World Sparrows and Allies","898"
"[{""page_index"":0,""viewing_time"":1574}]","1575","instructions","301","1404193","0.0-2.0","","","",""
