[{"view_history":"[{\"page_index\":0,\"viewing_time\":14968}]","rt":14968,"trial_type":"instructions","trial_index":0,"time_elapsed":14969,"internal_node_id":"0.0-0.0"},{"rt":9225,"responses":"{\"Q0\":\"Magnolia Warbler\"}","bird":["Townsend's Warbler"],"family":["Wood-Warblers"],"class":["881"],"trial_type":"image-multi-choice","trial_index":1,"time_elapsed":25239,"internal_node_id":"0.0-1.0-0.0"},{"rt":3308,"responses":"{\"Q0\":\"Lark Sparrow\"}","bird":["Lark Sparrow"],"family":["New World Sparrows and Allies"],"class":["899"],"trial_type":"image-multi-choice","trial_index":2,"time_elapsed":29569,"internal_node_id":"0.0-1.0-1.0"},{"rt":3139,"responses":"{\"Q0\":\"White-crowned Sparrow\"}","bird":["White-crowned Sparrow"],"family":["New World Sparrows and Allies"],"class":["766"],"trial_type":"image-multi-choice","trial_index":3,"time_elapsed":33717,"internal_node_id":"0.0-1.0-2.0"},{"rt":3510,"responses":"{\"Q0\":\"Lark Sparrow\"}","bird":["Lark Sparrow"],"family":["New World Sparrows and Allies"],"class":["899"],"trial_type":"image-multi-choice","trial_index":4,"time_elapsed":38253,"internal_node_id":"0.0-1.0-3.0"},{"rt":2254,"responses":"{\"Q0\":\"White-throated Sparrow\"}","bird":["White-throated Sparrow"],"family":["New World Sparrows and Allies"],"class":["764"],"trial_type":"image-multi-choice","trial_index":5,"time_elapsed":41537,"internal_node_id":"0.0-1.0-4.0"},{"rt":5794,"responses":"{\"Q0\":\"Lark Sparrow\"}","bird":["White-crowned Sparrow"],"family":["New World Sparrows and Allies"],"class":["766"],"trial_type":"image-multi-choice","trial_index":6,"time_elapsed":48355,"internal_node_id":"0.0-1.0-5.0"},{"rt":5863,"responses":"{\"Q0\":\"Nashville Warbler\"}","bird":["Tennessee Warbler"],"family":["Wood-Warblers"],"class":["866"],"trial_type":"image-multi-choice","trial_index":7,"time_elapsed":55256,"internal_node_id":"0.0-1.0-6.0"},{"rt":5862,"responses":"{\"Q0\":\"White-throated Sparrow\"}","bird":["White-crowned Sparrow"],"family":["New World Sparrows and Allies"],"class":["766"],"trial_type":"image-multi-choice","trial_index":8,"time_elapsed":62138,"internal_node_id":"0.0-1.0-7.0"},{"rt":4661,"responses":"{\"Q0\":\"Orange-crowned Warbler\"}","bird":["Orange-crowned Warbler"],"family":["Wood-Warblers"],"class":["867"],"trial_type":"image-multi-choice","trial_index":9,"time_elapsed":67822,"internal_node_id":"0.0-1.0-8.0"},{"rt":6684,"responses":"{\"Q0\":\"White-throated Sparrow\"}","bird":["Swamp Sparrow"],"family":["New World Sparrows and Allies"],"class":["904"],"trial_type":"image-multi-choice","trial_index":10,"time_elapsed":75524,"internal_node_id":"0.0-1.0-9.0"},{"rt":4576,"responses":"{\"Q0\":\"Orange-crowned Warbler\"}","bird":["Orange-crowned Warbler"],"family":["Wood-Warblers"],"class":["867"],"trial_type":"image-multi-choice","trial_index":11,"time_elapsed":81119,"internal_node_id":"0.0-1.0-10.0"},{"rt":6308,"responses":"{\"Q0\":\"White-crowned Sparrow\"}","bird":["White-crowned Sparrow"],"family":["New World Sparrows and Allies"],"class":["766"],"trial_type":"image-multi-choice","trial_index":12,"time_elapsed":88437,"internal_node_id":"0.0-1.0-11.0"},{"rt":13904,"responses":"{\"Q0\":\"Townsend's Warbler\"}","bird":["Townsend's Warbler"],"family":["Wood-Warblers"],"class":["881"],"trial_type":"image-multi-choice","trial_index":13,"time_elapsed":103353,"internal_node_id":"0.0-1.0-12.0"},{"rt":8992,"responses":"{\"Q0\":\"Vesper Sparrow\"}","bird":["Lincoln's Sparrow"],"family":["New World Sparrows and Allies"],"class":["903"],"trial_type":"image-multi-choice","trial_index":14,"time_elapsed":113352,"internal_node_id":"0.0-1.0-13.0"},{"rt":4961,"responses":"{\"Q0\":\"Ovenbird\"}","bird":["Ovenbird"],"family":["Wood-Warblers"],"class":["860"],"trial_type":"image-multi-choice","trial_index":15,"time_elapsed":119320,"internal_node_id":"0.0-1.0-14.0"},{"rt":4177,"responses":"{\"Q0\":\"Orange-crowned Warbler\"}","bird":["Tennessee Warbler"],"family":["Wood-Warblers"],"class":["866"],"trial_type":"image-multi-choice","trial_index":16,"time_elapsed":124519,"internal_node_id":"0.0-1.0-15.0"},{"rt":5542,"responses":"{\"Q0\":\"Song Sparrow\"}","bird":["Vesper Sparrow"],"family":["New World Sparrows and Allies"],"class":["898"],"trial_type":"image-multi-choice","trial_index":17,"time_elapsed":131084,"internal_node_id":"0.0-1.0-16.0"},{"rt":4928,"responses":"{\"Q0\":\"Orange-crowned Warbler\"}","bird":["Tennessee Warbler"],"family":["Wood-Warblers"],"class":["866"],"trial_type":"image-multi-choice","trial_index":18,"time_elapsed":137021,"internal_node_id":"0.0-1.0-17.0"},{"rt":5057,"responses":"{\"Q0\":\"Vesper Sparrow\"}","bird":["Vesper Sparrow"],"family":["New World Sparrows and Allies"],"class":["898"],"trial_type":"image-multi-choice","trial_index":19,"time_elapsed":143092,"internal_node_id":"0.0-1.0-18.0"},{"rt":4246,"responses":"{\"Q0\":\"Song Sparrow\"}","bird":["Song Sparrow"],"family":["New World Sparrows and Allies"],"class":["902"],"trial_type":"image-multi-choice","trial_index":20,"time_elapsed":148339,"internal_node_id":"0.0-1.0-19.0"},{"rt":8364,"responses":"{\"Q0\":\"Townsend's Warbler\"}","bird":["Magnolia Warbler"],"family":["Wood-Warblers"],"class":["758"],"trial_type":"image-multi-choice","trial_index":21,"time_elapsed":157735,"internal_node_id":"0.0-1.0-20.0"},{"rt":5722,"responses":"{\"Q0\":\"Orange-crowned Warbler\"}","bird":["Orange-crowned Warbler"],"family":["Wood-Warblers"],"class":["867"],"trial_type":"image-multi-choice","trial_index":22,"time_elapsed":164472,"internal_node_id":"0.0-1.0-21.0"},{"rt":6494,"responses":"{\"Q0\":\"Magnolia Warbler\"}","bird":["Townsend's Warbler"],"family":["Wood-Warblers"],"class":["881"],"trial_type":"image-multi-choice","trial_index":23,"time_elapsed":171985,"internal_node_id":"0.0-1.0-22.0"},{"rt":5695,"responses":"{\"Q0\":\"Northern Waterthrush\"}","bird":["Ovenbird"],"family":["Wood-Warblers"],"class":["860"],"trial_type":"image-multi-choice","trial_index":24,"time_elapsed":178703,"internal_node_id":"0.0-1.0-23.0"},{"rt":5893,"responses":"{\"Q0\":\"Lincoln's Sparrow\"}","bird":["Lincoln's Sparrow"],"family":["New World Sparrows and Allies"],"class":["903"],"trial_type":"image-multi-choice","trial_index":25,"time_elapsed":185603,"internal_node_id":"0.0-1.0-24.0"},{"rt":3295,"responses":"{\"Q0\":\"White-throated Sparrow\"}","bird":["White-throated Sparrow"],"family":["New World Sparrows and Allies"],"class":["764"],"trial_type":"image-multi-choice","trial_index":26,"time_elapsed":189918,"internal_node_id":"0.0-1.0-25.0"},{"rt":5977,"responses":"{\"Q0\":\"Northern Waterthrush\"}","bird":["Ovenbird"],"family":["Wood-Warblers"],"class":["860"],"trial_type":"image-multi-choice","trial_index":27,"time_elapsed":196919,"internal_node_id":"0.0-1.0-26.0"},{"rt":4372,"responses":"{\"Q0\":\"Chipping Sparrow\"}","bird":["Chipping Sparrow"],"family":["New World Sparrows and Allies"],"class":["769"],"trial_type":"image-multi-choice","trial_index":28,"time_elapsed":202299,"internal_node_id":"0.0-1.0-27.0"},{"rt":3709,"responses":"{\"Q0\":\"Fox Sparrow\"}","bird":["Fox Sparrow"],"family":["New World Sparrows and Allies"],"class":["901"],"trial_type":"image-multi-choice","trial_index":29,"time_elapsed":207017,"internal_node_id":"0.0-1.0-28.0"},{"rt":9944,"responses":"{\"Q0\":\"Blackburnian Warbler\"}","bird":["Magnolia Warbler"],"family":["Wood-Warblers"],"class":["758"],"trial_type":"image-multi-choice","trial_index":30,"time_elapsed":217971,"internal_node_id":"0.0-1.0-29.0"},{"rt":3631,"responses":"{\"Q0\":\"Northern Waterthrush\"}","bird":["Northern Waterthrush"],"family":["Wood-Warblers"],"class":["862"],"trial_type":"image-multi-choice","trial_index":31,"time_elapsed":222622,"internal_node_id":"0.0-1.0-30.0"},{"rt":4030,"responses":"{\"Q0\":\"Nashville Warbler\"}","bird":["Tennessee Warbler"],"family":["Wood-Warblers"],"class":["866"],"trial_type":"image-multi-choice","trial_index":32,"time_elapsed":227687,"internal_node_id":"0.0-1.0-31.0"},{"rt":6078,"responses":"{\"Q0\":\"Magnolia Warbler\"}","bird":["Magnolia Warbler"],"family":["Wood-Warblers"],"class":["758"],"trial_type":"image-multi-choice","trial_index":33,"time_elapsed":234786,"internal_node_id":"0.0-1.0-32.0"},{"rt":4711,"responses":"{\"Q0\":\"Song Sparrow\"}","bird":["Song Sparrow"],"family":["New World Sparrows and Allies"],"class":["902"],"trial_type":"image-multi-choice","trial_index":34,"time_elapsed":240517,"internal_node_id":"0.0-1.0-33.0"},{"rt":3455,"responses":"{\"Q0\":\"Lark Sparrow\"}","bird":["Lark Sparrow"],"family":["New World Sparrows and Allies"],"class":["899"],"trial_type":"image-multi-choice","trial_index":35,"time_elapsed":244986,"internal_node_id":"0.0-1.0-34.0"},{"rt":12046,"responses":"{\"Q0\":\"Orange-crowned Warbler\"}","bird":["Nashville Warbler"],"family":["Wood-Warblers"],"class":["868"],"trial_type":"image-multi-choice","trial_index":36,"time_elapsed":258052,"internal_node_id":"0.0-1.0-35.0"},{"rt":3295,"responses":"{\"Q0\":\"Northern Waterthrush\"}","bird":["Northern Waterthrush"],"family":["Wood-Warblers"],"class":["862"],"trial_type":"image-multi-choice","trial_index":37,"time_elapsed":262369,"internal_node_id":"0.0-1.0-36.0"},{"rt":4011,"responses":"{\"Q0\":\"American Tree Sparrow\"}","bird":["Chipping Sparrow"],"family":["New World Sparrows and Allies"],"class":["769"],"trial_type":"image-multi-choice","trial_index":38,"time_elapsed":267402,"internal_node_id":"0.0-1.0-37.0"},{"rt":2486,"responses":"{\"Q0\":\"Yellow Warbler\"}","bird":["Yellow Warbler"],"family":["Wood-Warblers"],"class":["875"],"trial_type":"image-multi-choice","trial_index":39,"time_elapsed":270917,"internal_node_id":"0.0-1.0-38.0"},{"rt":4012,"responses":"{\"Q0\":\"Northern Waterthrush\"}","bird":["Ovenbird"],"family":["Wood-Warblers"],"class":["860"],"trial_type":"image-multi-choice","trial_index":40,"time_elapsed":275937,"internal_node_id":"0.0-1.0-39.0"},{"rt":6991,"responses":"{\"Q0\":\"Black-and-white Warbler\"}","bird":["Black-and-white Warbler"],"family":["Wood-Warblers"],"class":["864"],"trial_type":"image-multi-choice","trial_index":41,"time_elapsed":283952,"internal_node_id":"0.0-1.0-40.0"},{"rt":9469,"responses":"{\"Q0\":\"Orange-crowned Warbler\"}","bird":["Tennessee Warbler"],"family":["Wood-Warblers"],"class":["866"],"trial_type":"image-multi-choice","trial_index":42,"time_elapsed":294438,"internal_node_id":"0.0-1.0-41.0"},{"rt":4544,"responses":"{\"Q0\":\"Song Sparrow\"}","bird":["Song Sparrow"],"family":["New World Sparrows and Allies"],"class":["902"],"trial_type":"image-multi-choice","trial_index":43,"time_elapsed":300018,"internal_node_id":"0.0-1.0-42.0"},{"rt":4951,"responses":"{\"Q0\":\"Black-and-white Warbler\"}","bird":["Blackburnian Warbler"],"family":["Wood-Warblers"],"class":["874"],"trial_type":"image-multi-choice","trial_index":44,"time_elapsed":306002,"internal_node_id":"0.0-1.0-43.0"},{"rt":8879,"responses":"{\"Q0\":\"Black-and-white Warbler\"}","bird":["Black-and-white Warbler"],"family":["Wood-Warblers"],"class":["864"],"trial_type":"image-multi-choice","trial_index":45,"time_elapsed":315902,"internal_node_id":"0.0-1.0-44.0"},{"rt":6212,"responses":"{\"Q0\":\"Townsend's Warbler\"}","bird":["Magnolia Warbler"],"family":["Wood-Warblers"],"class":["758"],"trial_type":"image-multi-choice","trial_index":46,"time_elapsed":323135,"internal_node_id":"0.0-1.0-45.0"},{"rt":3327,"responses":"{\"Q0\":\"Northern Waterthrush\"}","bird":["Ovenbird"],"family":["Wood-Warblers"],"class":["860"],"trial_type":"image-multi-choice","trial_index":47,"time_elapsed":327484,"internal_node_id":"0.0-1.0-46.0"},{"rt":5943,"responses":"{\"Q0\":\"Vesper Sparrow\"}","bird":["Vesper Sparrow"],"family":["New World Sparrows and Allies"],"class":["898"],"trial_type":"image-multi-choice","trial_index":48,"time_elapsed":334452,"internal_node_id":"0.0-1.0-47.0"},{"rt":4796,"responses":"{\"Q0\":\"Lark Sparrow\"}","bird":["Lark Sparrow"],"family":["New World Sparrows and Allies"],"class":["899"],"trial_type":"image-multi-choice","trial_index":49,"time_elapsed":340270,"internal_node_id":"0.0-1.0-48.0"},{"rt":5445,"responses":"{\"Q0\":\"Blackburnian Warbler\"}","bird":["Black-and-white Warbler"],"family":["Wood-Warblers"],"class":["864"],"trial_type":"image-multi-choice","trial_index":50,"time_elapsed":346750,"internal_node_id":"0.0-1.0-49.0"},{"rt":4440,"responses":"{\"Q0\":\"Townsend's Warbler\"}","bird":["Townsend's Warbler"],"family":["Wood-Warblers"],"class":["881"],"trial_type":"image-multi-choice","trial_index":51,"time_elapsed":352199,"internal_node_id":"0.0-1.0-50.0"},{"rt":13560,"responses":"{\"Q0\":\"Tennessee Warbler\"}","bird":["Nashville Warbler"],"family":["Wood-Warblers"],"class":["868"],"trial_type":"image-multi-choice","trial_index":52,"time_elapsed":366784,"internal_node_id":"0.0-1.0-51.0"},{"rt":5375,"responses":"{\"Q0\":\"American Tree Sparrow\"}","bird":["Chipping Sparrow"],"family":["New World Sparrows and Allies"],"class":["769"],"trial_type":"image-multi-choice","trial_index":53,"time_elapsed":373182,"internal_node_id":"0.0-1.0-52.0"},{"rt":8260,"responses":"{\"Q0\":\"White-throated Sparrow\"}","bird":["Swamp Sparrow"],"family":["New World Sparrows and Allies"],"class":["904"],"trial_type":"image-multi-choice","trial_index":54,"time_elapsed":382467,"internal_node_id":"0.0-1.0-53.0"},{"rt":4397,"responses":"{\"Q0\":\"White-crowned Sparrow\"}","bird":["White-crowned Sparrow"],"family":["New World Sparrows and Allies"],"class":["766"],"trial_type":"image-multi-choice","trial_index":55,"time_elapsed":387882,"internal_node_id":"0.0-1.0-54.0"},{"rt":4338,"responses":"{\"Q0\":\"Black-and-white Warbler\"}","bird":["Black-and-white Warbler"],"family":["Wood-Warblers"],"class":["864"],"trial_type":"image-multi-choice","trial_index":56,"time_elapsed":393231,"internal_node_id":"0.0-1.0-55.0"},{"rt":4577,"responses":"{\"Q0\":\"Nashville Warbler\"}","bird":["Tennessee Warbler"],"family":["Wood-Warblers"],"class":["866"],"trial_type":"image-multi-choice","trial_index":57,"time_elapsed":398834,"internal_node_id":"0.0-1.0-56.0"},{"rt":5409,"responses":"{\"Q0\":\"Townsend's Warbler\"}","bird":["Townsend's Warbler"],"family":["Wood-Warblers"],"class":["881"],"trial_type":"image-multi-choice","trial_index":58,"time_elapsed":405250,"internal_node_id":"0.0-1.0-57.0"},{"rt":6608,"responses":"{\"Q0\":\"Orange-crowned Warbler\"}","bird":["Nashville Warbler"],"family":["Wood-Warblers"],"class":["868"],"trial_type":"image-multi-choice","trial_index":59,"time_elapsed":412886,"internal_node_id":"0.0-1.0-58.0"},{"rt":4628,"responses":"{\"Q0\":\"Song Sparrow\"}","bird":["Lincoln's Sparrow"],"family":["New World Sparrows and Allies"],"class":["903"],"trial_type":"image-multi-choice","trial_index":60,"time_elapsed":434749,"internal_node_id":"0.0-1.0-59.0"},{"rt":8089,"responses":"{\"Q0\":\"Lark Sparrow\"}","bird":["Song Sparrow"],"family":["New World Sparrows and Allies"],"class":["902"],"trial_type":"image-multi-choice","trial_index":61,"time_elapsed":443850,"internal_node_id":"0.0-1.0-60.0"},{"rt":2779,"responses":"{\"Q0\":\"Yellow Warbler\"}","bird":["Yellow Warbler"],"family":["Wood-Warblers"],"class":["875"],"trial_type":"image-multi-choice","trial_index":62,"time_elapsed":447651,"internal_node_id":"0.0-1.0-61.0"},{"rt":3174,"responses":"{\"Q0\":\"White-throated Sparrow\"}","bird":["White-throated Sparrow"],"family":["New World Sparrows and Allies"],"class":["764"],"trial_type":"image-multi-choice","trial_index":63,"time_elapsed":451832,"internal_node_id":"0.0-1.0-62.0"},{"rt":5910,"responses":"{\"Q0\":\"Northern Waterthrush\"}","bird":["Tennessee Warbler"],"family":["Wood-Warblers"],"class":["866"],"trial_type":"image-multi-choice","trial_index":64,"time_elapsed":458766,"internal_node_id":"0.0-1.0-63.0"},{"rt":4509,"responses":"{\"Q0\":\"American Tree Sparrow\"}","bird":["Lincoln's Sparrow"],"family":["New World Sparrows and Allies"],"class":["903"],"trial_type":"image-multi-choice","trial_index":65,"time_elapsed":464283,"internal_node_id":"0.0-1.0-64.0"},{"rt":6411,"responses":"{\"Q0\":\"Blackburnian Warbler\"}","bird":["Blackburnian Warbler"],"family":["Wood-Warblers"],"class":["874"],"trial_type":"image-multi-choice","trial_index":66,"time_elapsed":471701,"internal_node_id":"0.0-1.0-65.0"},{"rt":7951,"responses":"{\"Q0\":\"Ovenbird\"}","bird":["Northern Waterthrush"],"family":["Wood-Warblers"],"class":["862"],"trial_type":"image-multi-choice","trial_index":67,"time_elapsed":480666,"internal_node_id":"0.0-1.0-66.0"},{"rt":2042,"responses":"{\"Q0\":\"Yellow Warbler\"}","bird":["Yellow Warbler"],"family":["Wood-Warblers"],"class":["875"],"trial_type":"image-multi-choice","trial_index":68,"time_elapsed":483732,"internal_node_id":"0.0-1.0-67.0"},{"rt":3956,"responses":"{\"Q0\":\"Vesper Sparrow\"}","bird":["Lincoln's Sparrow"],"family":["New World Sparrows and Allies"],"class":["903"],"trial_type":"image-multi-choice","trial_index":69,"time_elapsed":488696,"internal_node_id":"0.0-1.0-68.0"},{"rt":4214,"responses":"{\"Q0\":\"American Tree Sparrow\"}","bird":["American Tree Sparrow"],"family":["New World Sparrows and Allies"],"class":["894"],"trial_type":"image-multi-choice","trial_index":70,"time_elapsed":493933,"internal_node_id":"0.0-1.0-69.0"},{"rt":6513,"responses":"{\"Q0\":\"Orange-crowned Warbler\"}","bird":["Orange-crowned Warbler"],"family":["Wood-Warblers"],"class":["867"],"trial_type":"image-multi-choice","trial_index":71,"time_elapsed":501453,"internal_node_id":"0.0-1.0-70.0"},{"rt":9757,"responses":"{\"Q0\":\"Vesper Sparrow\"}","bird":["Lincoln's Sparrow"],"family":["New World Sparrows and Allies"],"class":["903"],"trial_type":"image-multi-choice","trial_index":72,"time_elapsed":512232,"internal_node_id":"0.0-1.0-71.0"},{"rt":5908,"responses":"{\"Q0\":\"Townsend's Warbler\"}","bird":["Magnolia Warbler"],"family":["Wood-Warblers"],"class":["758"],"trial_type":"image-multi-choice","trial_index":73,"time_elapsed":519164,"internal_node_id":"0.0-1.0-72.0"},{"rt":8361,"responses":"{\"Q0\":\"Vesper Sparrow\"}","bird":["Lincoln's Sparrow"],"family":["New World Sparrows and Allies"],"class":["903"],"trial_type":"image-multi-choice","trial_index":74,"time_elapsed":528565,"internal_node_id":"0.0-1.0-73.0"},{"rt":2744,"responses":"{\"Q0\":\"Yellow Warbler\"}","bird":["Yellow Warbler"],"family":["Wood-Warblers"],"class":["875"],"trial_type":"image-multi-choice","trial_index":75,"time_elapsed":532319,"internal_node_id":"0.0-1.0-74.0"},{"rt":3128,"responses":"{\"Q0\":\"White-crowned Sparrow\"}","bird":["White-crowned Sparrow"],"family":["New World Sparrows and Allies"],"class":["766"],"trial_type":"image-multi-choice","trial_index":76,"time_elapsed":536466,"internal_node_id":"0.0-1.0-75.0"},{"rt":7475,"responses":"{\"Q0\":\"Tennessee Warbler\"}","bird":["Nashville Warbler"],"family":["Wood-Warblers"],"class":["868"],"trial_type":"image-multi-choice","trial_index":77,"time_elapsed":544948,"internal_node_id":"0.0-1.0-76.0"},{"rt":3824,"responses":"{\"Q0\":\"American Tree Sparrow\"}","bird":["American Tree Sparrow"],"family":["New World Sparrows and Allies"],"class":["894"],"trial_type":"image-multi-choice","trial_index":78,"time_elapsed":549797,"internal_node_id":"0.0-1.0-77.0"},{"rt":4758,"responses":"{\"Q0\":\"Black-and-white Warbler\"}","bird":["Townsend's Warbler"],"family":["Wood-Warblers"],"class":["881"],"trial_type":"image-multi-choice","trial_index":79,"time_elapsed":555580,"internal_node_id":"0.0-1.0-78.0"},{"rt":4759,"responses":"{\"Q0\":\"White-throated Sparrow\"}","bird":["Chipping Sparrow"],"family":["New World Sparrows and Allies"],"class":["769"],"trial_type":"image-multi-choice","trial_index":80,"time_elapsed":561348,"internal_node_id":"0.0-1.0-79.0"},{"rt":2260,"responses":"{\"Q0\":\"White-throated Sparrow\"}","bird":["White-throated Sparrow"],"family":["New World Sparrows and Allies"],"class":["764"],"trial_type":"image-multi-choice","trial_index":81,"time_elapsed":564632,"internal_node_id":"0.0-1.0-80.0"},{"rt":3560,"responses":"{\"Q0\":\"Ovenbird\"}","bird":["Ovenbird"],"family":["Wood-Warblers"],"class":["860"],"trial_type":"image-multi-choice","trial_index":82,"time_elapsed":569199,"internal_node_id":"0.0-1.0-81.0"},{"rt":2472,"responses":"{\"Q0\":\"White-crowned Sparrow\"}","bird":["White-crowned Sparrow"],"family":["New World Sparrows and Allies"],"class":["766"],"trial_type":"image-multi-choice","trial_index":83,"time_elapsed":572693,"internal_node_id":"0.0-1.0-82.0"},{"rt":6690,"responses":"{\"Q0\":\"Magnolia Warbler\"}","bird":["Magnolia Warbler"],"family":["Wood-Warblers"],"class":["758"],"trial_type":"image-multi-choice","trial_index":84,"time_elapsed":580395,"internal_node_id":"0.0-1.0-83.0"},{"rt":2018,"responses":"{\"Q0\":\"Yellow Warbler\"}","bird":["Yellow Warbler"],"family":["Wood-Warblers"],"class":["875"],"trial_type":"image-multi-choice","trial_index":85,"time_elapsed":583432,"internal_node_id":"0.0-1.0-84.0"},{"rt":3511,"responses":"{\"Q0\":\"Lark Sparrow\"}","bird":["Lark Sparrow"],"family":["New World Sparrows and Allies"],"class":["899"],"trial_type":"image-multi-choice","trial_index":86,"time_elapsed":587966,"internal_node_id":"0.0-1.0-85.0"},{"rt":5605,"responses":"{\"Q0\":\"Song Sparrow\"}","bird":["Lincoln's Sparrow"],"family":["New World Sparrows and Allies"],"class":["903"],"trial_type":"image-multi-choice","trial_index":87,"time_elapsed":594582,"internal_node_id":"0.0-1.0-86.0"},{"rt":6324,"responses":"{\"Q0\":\"Ovenbird\"}","bird":["Black-and-white Warbler"],"family":["Wood-Warblers"],"class":["864"],"trial_type":"image-multi-choice","trial_index":88,"time_elapsed":601913,"internal_node_id":"0.0-1.0-87.0"},{"rt":2883,"responses":"{\"Q0\":\"White-crowned Sparrow\"}","bird":["White-crowned Sparrow"],"family":["New World Sparrows and Allies"],"class":["766"],"trial_type":"image-multi-choice","trial_index":89,"time_elapsed":605817,"internal_node_id":"0.0-1.0-88.0"},{"rt":5677,"responses":"{\"Q0\":\"Magnolia Warbler\"}","bird":["Townsend's Warbler"],"family":["Wood-Warblers"],"class":["881"],"trial_type":"image-multi-choice","trial_index":90,"time_elapsed":612515,"internal_node_id":"0.0-1.0-89.0"},{"rt":2479,"responses":"{\"Q0\":\"White-throated Sparrow\"}","bird":["White-throated Sparrow"],"family":["New World Sparrows and Allies"],"class":["764"],"trial_type":"image-multi-choice","trial_index":91,"time_elapsed":616018,"internal_node_id":"0.0-1.0-90.0"},{"rt":4659,"responses":"{\"Q0\":\"Magnolia Warbler\"}","bird":["Magnolia Warbler"],"family":["Wood-Warblers"],"class":["758"],"trial_type":"image-multi-choice","trial_index":92,"time_elapsed":621697,"internal_node_id":"0.0-1.0-91.0"},{"rt":4860,"responses":"{\"Q0\":\"Vesper Sparrow\"}","bird":["Lincoln's Sparrow"],"family":["New World Sparrows and Allies"],"class":["903"],"trial_type":"image-multi-choice","trial_index":93,"time_elapsed":627566,"internal_node_id":"0.0-1.0-92.0"},{"rt":7509,"responses":"{\"Q0\":\"Townsend's Warbler\"}","bird":["Blackburnian Warbler"],"family":["Wood-Warblers"],"class":["874"],"trial_type":"image-multi-choice","trial_index":94,"time_elapsed":636081,"internal_node_id":"0.0-1.0-93.0"},{"rt":3442,"responses":"{\"Q0\":\"Lark Sparrow\"}","bird":["Vesper Sparrow"],"family":["New World Sparrows and Allies"],"class":["898"],"trial_type":"image-multi-choice","trial_index":95,"time_elapsed":640530,"internal_node_id":"0.0-1.0-94.0"},{"rt":3025,"responses":"{\"Q0\":\"Lark Sparrow\"}","bird":["Lark Sparrow"],"family":["New World Sparrows and Allies"],"class":["899"],"trial_type":"image-multi-choice","trial_index":96,"time_elapsed":644564,"internal_node_id":"0.0-1.0-95.0"},{"rt":3145,"responses":"{\"Q0\":\"American Tree Sparrow\"}","bird":["Swamp Sparrow"],"family":["New World Sparrows and Allies"],"class":["904"],"trial_type":"image-multi-choice","trial_index":97,"time_elapsed":648732,"internal_node_id":"0.0-1.0-96.0"},{"rt":3929,"responses":"{\"Q0\":\"Northern Waterthrush\"}","bird":["Northern Waterthrush"],"family":["Wood-Warblers"],"class":["862"],"trial_type":"image-multi-choice","trial_index":98,"time_elapsed":653698,"internal_node_id":"0.0-1.0-97.0"},{"rt":4045,"responses":"{\"Q0\":\"Ovenbird\"}","bird":["Ovenbird"],"family":["Wood-Warblers"],"class":["860"],"trial_type":"image-multi-choice","trial_index":99,"time_elapsed":658766,"internal_node_id":"0.0-1.0-98.0"},{"rt":3510,"responses":"{\"Q0\":\"White-throated Sparrow\"}","bird":["White-throated Sparrow"],"family":["New World Sparrows and Allies"],"class":["764"],"trial_type":"image-multi-choice","trial_index":100,"time_elapsed":663282,"internal_node_id":"0.0-1.0-99.0"},{"rt":6091,"responses":"{\"Q0\":\"Tennessee Warbler\"}","bird":["Nashville Warbler"],"family":["Wood-Warblers"],"class":["868"],"trial_type":"image-multi-choice","trial_index":101,"time_elapsed":670379,"internal_node_id":"0.0-1.0-100.0"},{"rt":5643,"responses":"{\"Q0\":\"Magnolia Warbler\"}","bird":["Magnolia Warbler"],"family":["Wood-Warblers"],"class":["758"],"trial_type":"image-multi-choice","trial_index":102,"time_elapsed":677047,"internal_node_id":"0.0-1.0-101.0"},{"rt":3088,"responses":"{\"Q0\":\"White-throated Sparrow\"}","bird":["Swamp Sparrow"],"family":["New World Sparrows and Allies"],"class":["904"],"trial_type":"image-multi-choice","trial_index":103,"time_elapsed":681162,"internal_node_id":"0.0-1.0-102.0"},{"rt":3993,"responses":"{\"Q0\":\"Blackburnian Warbler\"}","bird":["Blackburnian Warbler"],"family":["Wood-Warblers"],"class":["874"],"trial_type":"image-multi-choice","trial_index":104,"time_elapsed":686181,"internal_node_id":"0.0-1.0-103.0"},{"rt":4142,"responses":"{\"Q0\":\"Northern Waterthrush\"}","bird":["Northern Waterthrush"],"family":["Wood-Warblers"],"class":["862"],"trial_type":"image-multi-choice","trial_index":105,"time_elapsed":691331,"internal_node_id":"0.0-1.0-104.0"},{"rt":5478,"responses":"{\"Q0\":\"American Tree Sparrow\"}","bird":["Swamp Sparrow"],"family":["New World Sparrows and Allies"],"class":["904"],"trial_type":"image-multi-choice","trial_index":106,"time_elapsed":697833,"internal_node_id":"0.0-1.0-105.0"},{"rt":4860,"responses":"{\"Q0\":\"Song Sparrow\"}","bird":["Song Sparrow"],"family":["New World Sparrows and Allies"],"class":["902"],"trial_type":"image-multi-choice","trial_index":107,"time_elapsed":703698,"internal_node_id":"0.0-1.0-106.0"},{"rt":5334,"responses":"{\"Q0\":\"Black-and-white Warbler\"}","bird":["Black-and-white Warbler"],"family":["Wood-Warblers"],"class":["864"],"trial_type":"image-multi-choice","trial_index":108,"time_elapsed":710065,"internal_node_id":"0.0-1.0-107.0"},{"rt":8525,"responses":"{\"Q0\":\"Black-and-white Warbler\"}","bird":["Blackburnian Warbler"],"family":["Wood-Warblers"],"class":["874"],"trial_type":"image-multi-choice","trial_index":109,"time_elapsed":719597,"internal_node_id":"0.0-1.0-108.0"},{"rt":3643,"responses":"{\"Q0\":\"Tennessee Warbler\"}","bird":["Nashville Warbler"],"family":["Wood-Warblers"],"class":["868"],"trial_type":"image-multi-choice","trial_index":110,"time_elapsed":724247,"internal_node_id":"0.0-1.0-109.0"},{"rt":3632,"responses":"{\"Q0\":\"Lark Sparrow\"}","bird":["Chipping Sparrow"],"family":["New World Sparrows and Allies"],"class":["769"],"trial_type":"image-multi-choice","trial_index":111,"time_elapsed":728901,"internal_node_id":"0.0-1.0-110.0"},{"rt":6427,"responses":"{\"Q0\":\"American Tree Sparrow\"}","bird":["American Tree Sparrow"],"family":["New World Sparrows and Allies"],"class":["894"],"trial_type":"image-multi-choice","trial_index":112,"time_elapsed":736348,"internal_node_id":"0.0-1.0-111.0"},{"rt":5080,"responses":"{\"Q0\":\"Northern Waterthrush\"}","bird":["Northern Waterthrush"],"family":["Wood-Warblers"],"class":["862"],"trial_type":"image-multi-choice","trial_index":113,"time_elapsed":742452,"internal_node_id":"0.0-1.0-112.0"},{"rt":2740,"responses":"{\"Q0\":\"Yellow Warbler\"}","bird":["Yellow Warbler"],"family":["Wood-Warblers"],"class":["875"],"trial_type":"image-multi-choice","trial_index":114,"time_elapsed":746196,"internal_node_id":"0.0-1.0-113.0"},{"rt":5353,"responses":"{\"Q0\":\"Orange-crowned Warbler\"}","bird":["Tennessee Warbler"],"family":["Wood-Warblers"],"class":["866"],"trial_type":"image-multi-choice","trial_index":115,"time_elapsed":752565,"internal_node_id":"0.0-1.0-114.0"},{"rt":8276,"responses":"{\"Q0\":\"Lincoln's Sparrow\"}","bird":["Lincoln's Sparrow"],"family":["New World Sparrows and Allies"],"class":["903"],"trial_type":"image-multi-choice","trial_index":116,"time_elapsed":761848,"internal_node_id":"0.0-1.0-115.0"},{"rt":6606,"responses":"{\"Q0\":\"Blackburnian Warbler\"}","bird":["Black-and-white Warbler"],"family":["Wood-Warblers"],"class":["864"],"trial_type":"image-multi-choice","trial_index":117,"time_elapsed":769479,"internal_node_id":"0.0-1.0-116.0"},{"rt":5692,"responses":"{\"Q0\":\"Vesper Sparrow\"}","bird":["Song Sparrow"],"family":["New World Sparrows and Allies"],"class":["902"],"trial_type":"image-multi-choice","trial_index":118,"time_elapsed":776180,"internal_node_id":"0.0-1.0-117.0"},{"rt":3594,"responses":"{\"Q0\":\"Vesper Sparrow\"}","bird":["Lincoln's Sparrow"],"family":["New World Sparrows and Allies"],"class":["903"],"trial_type":"image-multi-choice","trial_index":119,"time_elapsed":780798,"internal_node_id":"0.0-1.0-118.0"},{"rt":4327,"responses":"{\"Q0\":\"Blackburnian Warbler\"}","bird":["Blackburnian Warbler"],"family":["Wood-Warblers"],"class":["874"],"trial_type":"image-multi-choice","trial_index":120,"time_elapsed":791033,"internal_node_id":"0.0-1.0-119.0"},{"rt":4661,"responses":"{\"Q0\":\"Nashville Warbler\"}","bird":["Nashville Warbler"],"family":["Wood-Warblers"],"class":["868"],"trial_type":"image-multi-choice","trial_index":121,"time_elapsed":796716,"internal_node_id":"0.0-1.0-120.0"},{"rt":4490,"responses":"{\"Q0\":\"Vesper Sparrow\"}","bird":["Vesper Sparrow"],"family":["New World Sparrows and Allies"],"class":["898"],"trial_type":"image-multi-choice","trial_index":122,"time_elapsed":802215,"internal_node_id":"0.0-1.0-121.0"},{"rt":5335,"responses":"{\"Q0\":\"Magnolia Warbler\"}","bird":["Townsend's Warbler"],"family":["Wood-Warblers"],"class":["881"],"trial_type":"image-multi-choice","trial_index":123,"time_elapsed":808564,"internal_node_id":"0.0-1.0-122.0"},{"rt":5527,"responses":"{\"Q0\":\"Song Sparrow\"}","bird":["Song Sparrow"],"family":["New World Sparrows and Allies"],"class":["902"],"trial_type":"image-multi-choice","trial_index":124,"time_elapsed":815114,"internal_node_id":"0.0-1.0-123.0"},{"rt":2346,"responses":"{\"Q0\":\"White-throated Sparrow\"}","bird":["White-throated Sparrow"],"family":["New World Sparrows and Allies"],"class":["764"],"trial_type":"image-multi-choice","trial_index":125,"time_elapsed":818465,"internal_node_id":"0.0-1.0-124.0"},{"rt":2643,"responses":"{\"Q0\":\"Tennessee Warbler\"}","bird":["Nashville Warbler"],"family":["Wood-Warblers"],"class":["868"],"trial_type":"image-multi-choice","trial_index":126,"time_elapsed":822131,"internal_node_id":"0.0-1.0-125.0"},{"rt":3860,"responses":"{\"Q0\":\"Fox Sparrow\"}","bird":["Fox Sparrow"],"family":["New World Sparrows and Allies"],"class":["901"],"trial_type":"image-multi-choice","trial_index":127,"time_elapsed":827015,"internal_node_id":"0.0-1.0-126.0"},{"rt":3638,"responses":"{\"Q0\":\"Magnolia Warbler\"}","bird":["Magnolia Warbler"],"family":["Wood-Warblers"],"class":["758"],"trial_type":"image-multi-choice","trial_index":128,"time_elapsed":831664,"internal_node_id":"0.0-1.0-127.0"},{"rt":3025,"responses":"{\"Q0\":\"Tennessee Warbler\"}","bird":["Nashville Warbler"],"family":["Wood-Warblers"],"class":["868"],"trial_type":"image-multi-choice","trial_index":129,"time_elapsed":835712,"internal_node_id":"0.0-1.0-128.0"},{"rt":11391,"responses":"{\"Q0\":\"Vesper Sparrow\"}","bird":["Swamp Sparrow"],"family":["New World Sparrows and Allies"],"class":["904"],"trial_type":"image-multi-choice","trial_index":130,"time_elapsed":848112,"internal_node_id":"0.0-1.0-129.0"},{"rt":2278,"responses":"{\"Q0\":\"White-throated Sparrow\"}","bird":["White-throated Sparrow"],"family":["New World Sparrows and Allies"],"class":["764"],"trial_type":"image-multi-choice","trial_index":131,"time_elapsed":851414,"internal_node_id":"0.0-1.0-130.0"},{"rt":3545,"responses":"{\"Q0\":\"White-throated Sparrow\"}","bird":["Song Sparrow"],"family":["New World Sparrows and Allies"],"class":["902"],"trial_type":"image-multi-choice","trial_index":132,"time_elapsed":855982,"internal_node_id":"0.0-1.0-131.0"},{"rt":9348,"responses":"{\"Q0\":\"Yellow Warbler\"}","bird":["Yellow Warbler"],"family":["Wood-Warblers"],"class":["875"],"trial_type":"image-multi-choice","trial_index":133,"time_elapsed":866346,"internal_node_id":"0.0-1.0-132.0"},{"rt":6695,"responses":"{\"Q0\":\"Townsend's Warbler\"}","bird":["Townsend's Warbler"],"family":["Wood-Warblers"],"class":["881"],"trial_type":"image-multi-choice","trial_index":134,"time_elapsed":874046,"internal_node_id":"0.0-1.0-133.0"},{"rt":2599,"responses":"{\"Q0\":\"Fox Sparrow\"}","bird":["Fox Sparrow"],"family":["New World Sparrows and Allies"],"class":["901"],"trial_type":"image-multi-choice","trial_index":135,"time_elapsed":877654,"internal_node_id":"0.0-1.0-134.0"},{"rt":3358,"responses":"{\"Q0\":\"White-crowned Sparrow\"}","bird":["White-crowned Sparrow"],"family":["New World Sparrows and Allies"],"class":["766"],"trial_type":"image-multi-choice","trial_index":136,"time_elapsed":882012,"internal_node_id":"0.0-1.0-135.0"},{"rt":3715,"responses":"{\"Q0\":\"Magnolia Warbler\"}","bird":["Magnolia Warbler"],"family":["Wood-Warblers"],"class":["758"],"trial_type":"image-multi-choice","trial_index":137,"time_elapsed":886747,"internal_node_id":"0.0-1.0-136.0"},{"rt":6143,"responses":"{\"Q0\":\"Blackburnian Warbler\"}","bird":["Blackburnian Warbler"],"family":["Wood-Warblers"],"class":["874"],"trial_type":"image-multi-choice","trial_index":138,"time_elapsed":893897,"internal_node_id":"0.0-1.0-137.0"},{"rt":3077,"responses":"{\"Q0\":\"Magnolia Warbler\"}","bird":["Magnolia Warbler"],"family":["Wood-Warblers"],"class":["758"],"trial_type":"image-multi-choice","trial_index":139,"time_elapsed":897998,"internal_node_id":"0.0-1.0-138.0"},{"rt":4210,"responses":"{\"Q0\":\"Chipping Sparrow\"}","bird":["Chipping Sparrow"],"family":["New World Sparrows and Allies"],"class":["769"],"trial_type":"image-multi-choice","trial_index":140,"time_elapsed":903214,"internal_node_id":"0.0-1.0-139.0"},{"rt":4478,"responses":"{\"Q0\":\"American Tree Sparrow\"}","bird":["American Tree Sparrow"],"family":["New World Sparrows and Allies"],"class":["894"],"trial_type":"image-multi-choice","trial_index":141,"time_elapsed":908714,"internal_node_id":"0.0-1.0-140.0"},{"rt":3352,"responses":"{\"Q0\":\"Orange-crowned Warbler\"}","bird":["Orange-crowned Warbler"],"family":["Wood-Warblers"],"class":["867"],"trial_type":"image-multi-choice","trial_index":142,"time_elapsed":913083,"internal_node_id":"0.0-1.0-141.0"},{"rt":2912,"responses":"{\"Q0\":\"Fox Sparrow\"}","bird":["Fox Sparrow"],"family":["New World Sparrows and Allies"],"class":["901"],"trial_type":"image-multi-choice","trial_index":143,"time_elapsed":917029,"internal_node_id":"0.0-1.0-142.0"},{"rt":3262,"responses":"{\"Q0\":\"Yellow Warbler\"}","bird":["Yellow Warbler"],"family":["Wood-Warblers"],"class":["875"],"trial_type":"image-multi-choice","trial_index":144,"time_elapsed":921297,"internal_node_id":"0.0-1.0-143.0"},{"rt":3746,"responses":"{\"Q0\":\"American Tree Sparrow\"}","bird":["American Tree Sparrow"],"family":["New World Sparrows and Allies"],"class":["894"],"trial_type":"image-multi-choice","trial_index":145,"time_elapsed":926065,"internal_node_id":"0.0-1.0-144.0"},{"rt":3776,"responses":"{\"Q0\":\"Lark Sparrow\"}","bird":["Swamp Sparrow"],"family":["New World Sparrows and Allies"],"class":["904"],"trial_type":"image-multi-choice","trial_index":146,"time_elapsed":930862,"internal_node_id":"0.0-1.0-145.0"},{"rt":3143,"responses":"{\"Q0\":\"Lark Sparrow\"}","bird":["Lark Sparrow"],"family":["New World Sparrows and Allies"],"class":["899"],"trial_type":"image-multi-choice","trial_index":147,"time_elapsed":935013,"internal_node_id":"0.0-1.0-146.0"},{"rt":5179,"responses":"{\"Q0\":\"Lincoln's Sparrow\"}","bird":["Vesper Sparrow"],"family":["New World Sparrows and Allies"],"class":["898"],"trial_type":"image-multi-choice","trial_index":148,"time_elapsed":941215,"internal_node_id":"0.0-1.0-147.0"},{"rt":3011,"responses":"{\"Q0\":\"Fox Sparrow\"}","bird":["Fox Sparrow"],"family":["New World Sparrows and Allies"],"class":["901"],"trial_type":"image-multi-choice","trial_index":149,"time_elapsed":945247,"internal_node_id":"0.0-1.0-148.0"},{"rt":5140,"responses":"{\"Q0\":\"White-throated Sparrow\"}","bird":["Song Sparrow"],"family":["New World Sparrows and Allies"],"class":["902"],"trial_type":"image-multi-choice","trial_index":150,"time_elapsed":951414,"internal_node_id":"0.0-1.0-149.0"},{"rt":11203,"responses":"{\"Q0\":\"Blackburnian Warbler\"}","bird":["Blackburnian Warbler"],"family":["Wood-Warblers"],"class":["874"],"trial_type":"image-multi-choice","trial_index":151,"time_elapsed":963640,"internal_node_id":"0.0-1.0-150.0"},{"rt":5596,"responses":"{\"Q0\":\"Orange-crowned Warbler\"}","bird":["Orange-crowned Warbler"],"family":["Wood-Warblers"],"class":["867"],"trial_type":"image-multi-choice","trial_index":152,"time_elapsed":970264,"internal_node_id":"0.0-1.0-151.0"},{"rt":4012,"responses":"{\"Q0\":\"Fox Sparrow\"}","bird":["Fox Sparrow"],"family":["New World Sparrows and Allies"],"class":["901"],"trial_type":"image-multi-choice","trial_index":153,"time_elapsed":975297,"internal_node_id":"0.0-1.0-152.0"},{"rt":3507,"responses":"{\"Q0\":\"Orange-crowned Warbler\"}","bird":["Orange-crowned Warbler"],"family":["Wood-Warblers"],"class":["867"],"trial_type":"image-multi-choice","trial_index":154,"time_elapsed":979828,"internal_node_id":"0.0-1.0-153.0"},{"rt":6260,"responses":"{\"Q0\":\"Blackburnian Warbler\"}","bird":["Townsend's Warbler"],"family":["Wood-Warblers"],"class":["881"],"trial_type":"image-multi-choice","trial_index":155,"time_elapsed":987098,"internal_node_id":"0.0-1.0-154.0"},{"rt":3059,"responses":"{\"Q0\":\"Northern Waterthrush\"}","bird":["Ovenbird"],"family":["Wood-Warblers"],"class":["860"],"trial_type":"image-multi-choice","trial_index":156,"time_elapsed":991162,"internal_node_id":"0.0-1.0-155.0"},{"rt":3021,"responses":"{\"Q0\":\"Tennessee Warbler\"}","bird":["Nashville Warbler"],"family":["Wood-Warblers"],"class":["868"],"trial_type":"image-multi-choice","trial_index":157,"time_elapsed":995196,"internal_node_id":"0.0-1.0-156.0"},{"rt":7496,"responses":"{\"Q0\":\"Lark Sparrow\"}","bird":["Song Sparrow"],"family":["New World Sparrows and Allies"],"class":["902"],"trial_type":"image-multi-choice","trial_index":158,"time_elapsed":1003715,"internal_node_id":"0.0-1.0-157.0"},{"rt":2345,"responses":"{\"Q0\":\"Yellow Warbler\"}","bird":["Yellow Warbler"],"family":["Wood-Warblers"],"class":["875"],"trial_type":"image-multi-choice","trial_index":159,"time_elapsed":1007081,"internal_node_id":"0.0-1.0-158.0"},{"rt":3673,"responses":"{\"Q0\":\"Fox Sparrow\"}","bird":["Fox Sparrow"],"family":["New World Sparrows and Allies"],"class":["901"],"trial_type":"image-multi-choice","trial_index":160,"time_elapsed":1011782,"internal_node_id":"0.0-1.0-159.0"},{"rt":4633,"responses":"{\"Q0\":\"Black-and-white Warbler\"}","bird":["Black-and-white Warbler"],"family":["Wood-Warblers"],"class":["864"],"trial_type":"image-multi-choice","trial_index":161,"time_elapsed":1017450,"internal_node_id":"0.0-1.0-160.0"},{"rt":5644,"responses":"{\"Q0\":\"Tennessee Warbler\"}","bird":["Orange-crowned Warbler"],"family":["Wood-Warblers"],"class":["867"],"trial_type":"image-multi-choice","trial_index":162,"time_elapsed":1024112,"internal_node_id":"0.0-1.0-161.0"},{"rt":5960,"responses":"{\"Q0\":\"American Tree Sparrow\"}","bird":["American Tree Sparrow"],"family":["New World Sparrows and Allies"],"class":["894"],"trial_type":"image-multi-choice","trial_index":163,"time_elapsed":1031079,"internal_node_id":"0.0-1.0-162.0"},{"rt":5830,"responses":"{\"Q0\":\"Townsend's Warbler\"}","bird":["Townsend's Warbler"],"family":["Wood-Warblers"],"class":["881"],"trial_type":"image-multi-choice","trial_index":164,"time_elapsed":1037930,"internal_node_id":"0.0-1.0-163.0"},{"rt":6599,"responses":"{\"Q0\":\"Swamp Sparrow\"}","bird":["Song Sparrow"],"family":["New World Sparrows and Allies"],"class":["902"],"trial_type":"image-multi-choice","trial_index":165,"time_elapsed":1045548,"internal_node_id":"0.0-1.0-164.0"},{"rt":6877,"responses":"{\"Q0\":\"Tennessee Warbler\"}","bird":["Nashville Warbler"],"family":["Wood-Warblers"],"class":["868"],"trial_type":"image-multi-choice","trial_index":166,"time_elapsed":1053430,"internal_node_id":"0.0-1.0-165.0"},{"rt":4729,"responses":"{\"Q0\":\"Tennessee Warbler\"}","bird":["Tennessee Warbler"],"family":["Wood-Warblers"],"class":["866"],"trial_type":"image-multi-choice","trial_index":167,"time_elapsed":1059180,"internal_node_id":"0.0-1.0-166.0"},{"rt":6836,"responses":"{\"Q0\":\"American Tree Sparrow\"}","bird":["Chipping Sparrow"],"family":["New World Sparrows and Allies"],"class":["769"],"trial_type":"image-multi-choice","trial_index":168,"time_elapsed":1067048,"internal_node_id":"0.0-1.0-167.0"},{"rt":3528,"responses":"{\"Q0\":\"Ovenbird\"}","bird":["Ovenbird"],"family":["Wood-Warblers"],"class":["860"],"trial_type":"image-multi-choice","trial_index":169,"time_elapsed":1071611,"internal_node_id":"0.0-1.0-168.0"},{"rt":2629,"responses":"{\"Q0\":\"White-throated Sparrow\"}","bird":["White-throated Sparrow"],"family":["New World Sparrows and Allies"],"class":["764"],"trial_type":"image-multi-choice","trial_index":170,"time_elapsed":1075248,"internal_node_id":"0.0-1.0-169.0"},{"rt":2778,"responses":"{\"Q0\":\"Fox Sparrow\"}","bird":["Fox Sparrow"],"family":["New World Sparrows and Allies"],"class":["901"],"trial_type":"image-multi-choice","trial_index":171,"time_elapsed":1079046,"internal_node_id":"0.0-1.0-170.0"},{"rt":3843,"responses":"{\"Q0\":\"Black-and-white Warbler\"}","bird":["Blackburnian Warbler"],"family":["Wood-Warblers"],"class":["874"],"trial_type":"image-multi-choice","trial_index":172,"time_elapsed":1083912,"internal_node_id":"0.0-1.0-171.0"},{"rt":4662,"responses":"{\"Q0\":\"American Tree Sparrow\"}","bird":["American Tree Sparrow"],"family":["New World Sparrows and Allies"],"class":["894"],"trial_type":"image-multi-choice","trial_index":173,"time_elapsed":1089596,"internal_node_id":"0.0-1.0-172.0"},{"rt":7243,"responses":"{\"Q0\":\"American Tree Sparrow\"}","bird":["Swamp Sparrow"],"family":["New World Sparrows and Allies"],"class":["904"],"trial_type":"image-multi-choice","trial_index":174,"time_elapsed":1097863,"internal_node_id":"0.0-1.0-173.0"},{"rt":6496,"responses":"{\"Q0\":\"Townsend's Warbler\"}","bird":["Townsend's Warbler"],"family":["Wood-Warblers"],"class":["881"],"trial_type":"image-multi-choice","trial_index":175,"time_elapsed":1105396,"internal_node_id":"0.0-1.0-174.0"},{"rt":4795,"responses":"{\"Q0\":\"Nashville Warbler\"}","bird":["Tennessee Warbler"],"family":["Wood-Warblers"],"class":["866"],"trial_type":"image-multi-choice","trial_index":176,"time_elapsed":1111228,"internal_node_id":"0.0-1.0-175.0"},{"rt":3596,"responses":"{\"Q0\":\"Northern Waterthrush\"}","bird":["Northern Waterthrush"],"family":["Wood-Warblers"],"class":["862"],"trial_type":"image-multi-choice","trial_index":177,"time_elapsed":1115830,"internal_node_id":"0.0-1.0-176.0"},{"rt":4229,"responses":"{\"Q0\":\"White-throated Sparrow\"}","bird":["Swamp Sparrow"],"family":["New World Sparrows and Allies"],"class":["904"],"trial_type":"image-multi-choice","trial_index":178,"time_elapsed":1121081,"internal_node_id":"0.0-1.0-177.0"},{"rt":4361,"responses":"{\"Q0\":\"Fox Sparrow\"}","bird":["Fox Sparrow"],"family":["New World Sparrows and Allies"],"class":["901"],"trial_type":"image-multi-choice","trial_index":179,"time_elapsed":1126461,"internal_node_id":"0.0-1.0-178.0"},{"rt":7444,"responses":"{\"Q0\":\"White-crowned Sparrow\"}","bird":["American Tree Sparrow"],"family":["New World Sparrows and Allies"],"class":["894"],"trial_type":"image-multi-choice","trial_index":180,"time_elapsed":1143043,"internal_node_id":"0.0-1.0-179.0"},{"rt":2545,"responses":"{\"Q0\":\"Fox Sparrow\"}","bird":["Fox Sparrow"],"family":["New World Sparrows and Allies"],"class":["901"],"trial_type":"image-multi-choice","trial_index":181,"time_elapsed":1146613,"internal_node_id":"0.0-1.0-180.0"},{"rt":4912,"responses":"{\"Q0\":\"Lark Sparrow\"}","bird":["Vesper Sparrow"],"family":["New World Sparrows and Allies"],"class":["898"],"trial_type":"image-multi-choice","trial_index":182,"time_elapsed":1152562,"internal_node_id":"0.0-1.0-181.0"},{"rt":7195,"responses":"{\"Q0\":\"Song Sparrow\"}","bird":["Song Sparrow"],"family":["New World Sparrows and Allies"],"class":["902"],"trial_type":"image-multi-choice","trial_index":183,"time_elapsed":1160778,"internal_node_id":"0.0-1.0-182.0"},{"rt":5111,"responses":"{\"Q0\":\"Blackburnian Warbler\"}","bird":["Blackburnian Warbler"],"family":["Wood-Warblers"],"class":["874"],"trial_type":"image-multi-choice","trial_index":184,"time_elapsed":1166911,"internal_node_id":"0.0-1.0-183.0"},{"rt":4886,"responses":"{\"Q0\":\"White-crowned Sparrow\"}","bird":["White-crowned Sparrow"],"family":["New World Sparrows and Allies"],"class":["766"],"trial_type":"image-multi-choice","trial_index":185,"time_elapsed":1172814,"internal_node_id":"0.0-1.0-184.0"},{"rt":7261,"responses":"{\"Q0\":\"American Tree Sparrow\"}","bird":["American Tree Sparrow"],"family":["New World Sparrows and Allies"],"class":["894"],"trial_type":"image-multi-choice","trial_index":186,"time_elapsed":1181096,"internal_node_id":"0.0-1.0-185.0"},{"rt":7802,"responses":"{\"Q0\":\"Townsend's Warbler\"}","bird":["Black-and-white Warbler"],"family":["Wood-Warblers"],"class":["864"],"trial_type":"image-multi-choice","trial_index":187,"time_elapsed":1189929,"internal_node_id":"0.0-1.0-186.0"},{"rt":3330,"responses":"{\"Q0\":\"Lark Sparrow\"}","bird":["Lark Sparrow"],"family":["New World Sparrows and Allies"],"class":["899"],"trial_type":"image-multi-choice","trial_index":188,"time_elapsed":1194265,"internal_node_id":"0.0-1.0-187.0"},{"rt":2864,"responses":"{\"Q0\":\"Nashville Warbler\"}","bird":["Nashville Warbler"],"family":["Wood-Warblers"],"class":["868"],"trial_type":"image-multi-choice","trial_index":189,"time_elapsed":1198147,"internal_node_id":"0.0-1.0-188.0"},{"rt":3110,"responses":"{\"Q0\":\"Northern Waterthrush\"}","bird":["Northern Waterthrush"],"family":["Wood-Warblers"],"class":["862"],"trial_type":"image-multi-choice","trial_index":190,"time_elapsed":1202261,"internal_node_id":"0.0-1.0-189.0"},{"rt":4482,"responses":"{\"Q0\":\"Tennessee Warbler\"}","bird":["Tennessee Warbler"],"family":["Wood-Warblers"],"class":["866"],"trial_type":"image-multi-choice","trial_index":191,"time_elapsed":1207777,"internal_node_id":"0.0-1.0-190.0"},{"rt":3396,"responses":"{\"Q0\":\"Nashville Warbler\"}","bird":["Nashville Warbler"],"family":["Wood-Warblers"],"class":["868"],"trial_type":"image-multi-choice","trial_index":192,"time_elapsed":1212181,"internal_node_id":"0.0-1.0-191.0"},{"rt":2795,"responses":"{\"Q0\":\"Fox Sparrow\"}","bird":["Fox Sparrow"],"family":["New World Sparrows and Allies"],"class":["901"],"trial_type":"image-multi-choice","trial_index":193,"time_elapsed":1215996,"internal_node_id":"0.0-1.0-192.0"},{"rt":9178,"responses":"{\"Q0\":\"Blackburnian Warbler\"}","bird":["Blackburnian Warbler"],"family":["Wood-Warblers"],"class":["874"],"trial_type":"image-multi-choice","trial_index":194,"time_elapsed":1226195,"internal_node_id":"0.0-1.0-193.0"},{"rt":6510,"responses":"{\"Q0\":\"American Tree Sparrow\"}","bird":["Swamp Sparrow"],"family":["New World Sparrows and Allies"],"class":["904"],"trial_type":"image-multi-choice","trial_index":195,"time_elapsed":1233711,"internal_node_id":"0.0-1.0-194.0"},{"rt":6544,"responses":"{\"Q0\":\"Blackburnian Warbler\"}","bird":["Townsend's Warbler"],"family":["Wood-Warblers"],"class":["881"],"trial_type":"image-multi-choice","trial_index":196,"time_elapsed":1241279,"internal_node_id":"0.0-1.0-195.0"},{"rt":4048,"responses":"{\"Q0\":\"Tennessee Warbler\"}","bird":["Tennessee Warbler"],"family":["Wood-Warblers"],"class":["866"],"trial_type":"image-multi-choice","trial_index":197,"time_elapsed":1246347,"internal_node_id":"0.0-1.0-196.0"},{"rt":2679,"responses":"{\"Q0\":\"White-crowned Sparrow\"}","bird":["White-crowned Sparrow"],"family":["New World Sparrows and Allies"],"class":["766"],"trial_type":"image-multi-choice","trial_index":198,"time_elapsed":1250046,"internal_node_id":"0.0-1.0-197.0"},{"rt":3011,"responses":"{\"Q0\":\"Ovenbird\"}","bird":["Ovenbird"],"family":["Wood-Warblers"],"class":["860"],"trial_type":"image-multi-choice","trial_index":199,"time_elapsed":1254078,"internal_node_id":"0.0-1.0-198.0"},{"rt":5777,"responses":"{\"Q0\":\"Lincoln's Sparrow\"}","bird":["Vesper Sparrow"],"family":["New World Sparrows and Allies"],"class":["898"],"trial_type":"image-multi-choice","trial_index":200,"time_elapsed":1260877,"internal_node_id":"0.0-1.0-199.0"},{"rt":10496,"responses":"{\"Q0\":\"Blackburnian Warbler\"}","bird":["Blackburnian Warbler"],"family":["Wood-Warblers"],"class":["874"],"trial_type":"image-multi-choice","trial_index":201,"time_elapsed":1272411,"internal_node_id":"0.0-1.0-200.0"},{"rt":4744,"responses":"{\"Q0\":\"American Tree Sparrow\"}","bird":["Chipping Sparrow"],"family":["New World Sparrows and Allies"],"class":["769"],"trial_type":"image-multi-choice","trial_index":202,"time_elapsed":1278177,"internal_node_id":"0.0-1.0-201.0"},{"rt":3545,"responses":"{\"Q0\":\"Vesper Sparrow\"}","bird":["Vesper Sparrow"],"family":["New World Sparrows and Allies"],"class":["898"],"trial_type":"image-multi-choice","trial_index":203,"time_elapsed":1282744,"internal_node_id":"0.0-1.0-202.0"},{"rt":2296,"responses":"{\"Q0\":\"Yellow Warbler\"}","bird":["Yellow Warbler"],"family":["Wood-Warblers"],"class":["875"],"trial_type":"image-multi-choice","trial_index":204,"time_elapsed":1286062,"internal_node_id":"0.0-1.0-203.0"},{"rt":4196,"responses":"{\"Q0\":\"Orange-crowned Warbler\"}","bird":["Orange-crowned Warbler"],"family":["Wood-Warblers"],"class":["867"],"trial_type":"image-multi-choice","trial_index":205,"time_elapsed":1291279,"internal_node_id":"0.0-1.0-204.0"},{"rt":3264,"responses":"{\"Q0\":\"White-throated Sparrow\"}","bird":["White-throated Sparrow"],"family":["New World Sparrows and Allies"],"class":["764"],"trial_type":"image-multi-choice","trial_index":206,"time_elapsed":1295578,"internal_node_id":"0.0-1.0-205.0"},{"rt":2704,"responses":"{\"Q0\":\"American Tree Sparrow\"}","bird":["American Tree Sparrow"],"family":["New World Sparrows and Allies"],"class":["894"],"trial_type":"image-multi-choice","trial_index":207,"time_elapsed":1299294,"internal_node_id":"0.0-1.0-206.0"},{"rt":5400,"responses":"{\"Q0\":\"Nashville Warbler\"}","bird":["Orange-crowned Warbler"],"family":["Wood-Warblers"],"class":["867"],"trial_type":"image-multi-choice","trial_index":208,"time_elapsed":1305711,"internal_node_id":"0.0-1.0-207.0"},{"rt":3179,"responses":"{\"Q0\":\"Lark Sparrow\"}","bird":["Black-and-white Warbler"],"family":["Wood-Warblers"],"class":["864"],"trial_type":"image-multi-choice","trial_index":209,"time_elapsed":1309913,"internal_node_id":"0.0-1.0-208.0"},{"rt":2726,"responses":"{\"Q0\":\"Lark Sparrow\"}","bird":["Lark Sparrow"],"family":["New World Sparrows and Allies"],"class":["899"],"trial_type":"image-multi-choice","trial_index":210,"time_elapsed":1313644,"internal_node_id":"0.0-1.0-209.0"},{"rt":3996,"responses":"{\"Q0\":\"White-throated Sparrow\"}","bird":["Chipping Sparrow"],"family":["New World Sparrows and Allies"],"class":["769"],"trial_type":"image-multi-choice","trial_index":211,"time_elapsed":1318663,"internal_node_id":"0.0-1.0-210.0"},{"rt":2928,"responses":"{\"Q0\":\"Tennessee Warbler\"}","bird":["Orange-crowned Warbler"],"family":["Wood-Warblers"],"class":["867"],"trial_type":"image-multi-choice","trial_index":212,"time_elapsed":1322596,"internal_node_id":"0.0-1.0-211.0"},{"rt":2480,"responses":"{\"Q0\":\"Yellow Warbler\"}","bird":["Yellow Warbler"],"family":["Wood-Warblers"],"class":["875"],"trial_type":"image-multi-choice","trial_index":213,"time_elapsed":1326097,"internal_node_id":"0.0-1.0-212.0"},{"rt":3876,"responses":"{\"Q0\":\"American Tree Sparrow\"}","bird":["American Tree Sparrow"],"family":["New World Sparrows and Allies"],"class":["894"],"trial_type":"image-multi-choice","trial_index":214,"time_elapsed":1330977,"internal_node_id":"0.0-1.0-213.0"},{"rt":6194,"responses":"{\"Q0\":\"Song Sparrow\"}","bird":["Vesper Sparrow"],"family":["New World Sparrows and Allies"],"class":["898"],"trial_type":"image-multi-choice","trial_index":215,"time_elapsed":1338196,"internal_node_id":"0.0-1.0-214.0"},{"rt":4796,"responses":"{\"Q0\":\"Northern Waterthrush\"}","bird":["Ovenbird"],"family":["Wood-Warblers"],"class":["860"],"trial_type":"image-multi-choice","trial_index":216,"time_elapsed":1344013,"internal_node_id":"0.0-1.0-215.0"},{"rt":2845,"responses":"{\"Q0\":\"Lark Sparrow\"}","bird":["Lark Sparrow"],"family":["New World Sparrows and Allies"],"class":["899"],"trial_type":"image-multi-choice","trial_index":217,"time_elapsed":1347878,"internal_node_id":"0.0-1.0-216.0"},{"rt":4413,"responses":"{\"Q0\":\"Song Sparrow\"}","bird":["Lincoln's Sparrow"],"family":["New World Sparrows and Allies"],"class":["903"],"trial_type":"image-multi-choice","trial_index":218,"time_elapsed":1353295,"internal_node_id":"0.0-1.0-217.0"},{"rt":5444,"responses":"{\"Q0\":\"American Tree Sparrow\"}","bird":["Chipping Sparrow"],"family":["New World Sparrows and Allies"],"class":["769"],"trial_type":"image-multi-choice","trial_index":219,"time_elapsed":1359760,"internal_node_id":"0.0-1.0-218.0"},{"rt":3280,"responses":"{\"Q0\":\"Song Sparrow\"}","bird":["Lincoln's Sparrow"],"family":["New World Sparrows and Allies"],"class":["903"],"trial_type":"image-multi-choice","trial_index":220,"time_elapsed":1364063,"internal_node_id":"0.0-1.0-219.0"},{"rt":6678,"responses":"{\"Q0\":\"Northern Waterthrush\"}","bird":["Northern Waterthrush"],"family":["Wood-Warblers"],"class":["862"],"trial_type":"image-multi-choice","trial_index":221,"time_elapsed":1371763,"internal_node_id":"0.0-1.0-220.0"},{"rt":4627,"responses":"{\"Q0\":\"American Tree Sparrow\"}","bird":["Chipping Sparrow"],"family":["New World Sparrows and Allies"],"class":["769"],"trial_type":"image-multi-choice","trial_index":222,"time_elapsed":1377410,"internal_node_id":"0.0-1.0-221.0"},{"rt":6610,"responses":"{\"Q0\":\"Vesper Sparrow\"}","bird":["Lincoln's Sparrow"],"family":["New World Sparrows and Allies"],"class":["903"],"trial_type":"image-multi-choice","trial_index":223,"time_elapsed":1385026,"internal_node_id":"0.0-1.0-222.0"},{"rt":6778,"responses":"{\"Q0\":\"Black-and-white Warbler\"}","bird":["Blackburnian Warbler"],"family":["Wood-Warblers"],"class":["874"],"trial_type":"image-multi-choice","trial_index":224,"time_elapsed":1392827,"internal_node_id":"0.0-1.0-223.0"},{"rt":3959,"responses":"{\"Q0\":\"American Tree Sparrow\"}","bird":["Swamp Sparrow"],"family":["New World Sparrows and Allies"],"class":["904"],"trial_type":"image-multi-choice","trial_index":225,"time_elapsed":1397808,"internal_node_id":"0.0-1.0-224.0"},{"rt":6226,"responses":"{\"Q0\":\"American Tree Sparrow\"}","bird":["American Tree Sparrow"],"family":["New World Sparrows and Allies"],"class":["894"],"trial_type":"image-multi-choice","trial_index":226,"time_elapsed":1405044,"internal_node_id":"0.0-1.0-225.0"},{"rt":3127,"responses":"{\"Q0\":\"Fox Sparrow\"}","bird":["Fox Sparrow"],"family":["New World Sparrows and Allies"],"class":["901"],"trial_type":"image-multi-choice","trial_index":227,"time_elapsed":1409192,"internal_node_id":"0.0-1.0-226.0"},{"rt":5312,"responses":"{\"Q0\":\"Northern Waterthrush\"}","bird":["Northern Waterthrush"],"family":["Wood-Warblers"],"class":["862"],"trial_type":"image-multi-choice","trial_index":228,"time_elapsed":1415511,"internal_node_id":"0.0-1.0-227.0"},{"rt":3078,"responses":"{\"Q0\":\"Nashville Warbler\"}","bird":["Nashville Warbler"],"family":["Wood-Warblers"],"class":["868"],"trial_type":"image-multi-choice","trial_index":229,"time_elapsed":1419608,"internal_node_id":"0.0-1.0-228.0"},{"rt":7550,"responses":"{\"Q0\":\"Black-and-white Warbler\"}","bird":["Black-and-white Warbler"],"family":["Wood-Warblers"],"class":["864"],"trial_type":"image-multi-choice","trial_index":230,"time_elapsed":1428180,"internal_node_id":"0.0-1.0-229.0"},{"rt":3743,"responses":"{\"Q0\":\"Tennessee Warbler\"}","bird":["Tennessee Warbler"],"family":["Wood-Warblers"],"class":["866"],"trial_type":"image-multi-choice","trial_index":231,"time_elapsed":1432943,"internal_node_id":"0.0-1.0-230.0"},{"rt":4177,"responses":"{\"Q0\":\"Magnolia Warbler\"}","bird":["Townsend's Warbler"],"family":["Wood-Warblers"],"class":["881"],"trial_type":"image-multi-choice","trial_index":232,"time_elapsed":1438141,"internal_node_id":"0.0-1.0-231.0"},{"rt":7575,"responses":"{\"Q0\":\"Blackburnian Warbler\"}","bird":["Magnolia Warbler"],"family":["Wood-Warblers"],"class":["758"],"trial_type":"image-multi-choice","trial_index":233,"time_elapsed":1446743,"internal_node_id":"0.0-1.0-232.0"},{"rt":4049,"responses":"{\"Q0\":\"Northern Waterthrush\"}","bird":["Northern Waterthrush"],"family":["Wood-Warblers"],"class":["862"],"trial_type":"image-multi-choice","trial_index":234,"time_elapsed":1451814,"internal_node_id":"0.0-1.0-233.0"},{"rt":6142,"responses":"{\"Q0\":\"Tennessee Warbler\"}","bird":["Orange-crowned Warbler"],"family":["Wood-Warblers"],"class":["867"],"trial_type":"image-multi-choice","trial_index":235,"time_elapsed":1458975,"internal_node_id":"0.0-1.0-234.0"},{"rt":2627,"responses":"{\"Q0\":\"White-throated Sparrow\"}","bird":["White-throated Sparrow"],"family":["New World Sparrows and Allies"],"class":["764"],"trial_type":"image-multi-choice","trial_index":236,"time_elapsed":1462610,"internal_node_id":"0.0-1.0-235.0"},{"rt":2055,"responses":"{\"Q0\":\"Yellow Warbler\"}","bird":["Yellow Warbler"],"family":["Wood-Warblers"],"class":["875"],"trial_type":"image-multi-choice","trial_index":237,"time_elapsed":1465675,"internal_node_id":"0.0-1.0-236.0"},{"rt":3562,"responses":"{\"Q0\":\"Fox Sparrow\"}","bird":["Fox Sparrow"],"family":["New World Sparrows and Allies"],"class":["901"],"trial_type":"image-multi-choice","trial_index":238,"time_elapsed":1470244,"internal_node_id":"0.0-1.0-237.0"},{"rt":5495,"responses":"{\"Q0\":\"American Tree Sparrow\"}","bird":["Swamp Sparrow"],"family":["New World Sparrows and Allies"],"class":["904"],"trial_type":"image-multi-choice","trial_index":239,"time_elapsed":1476759,"internal_node_id":"0.0-1.0-238.0"},{"rt":3141,"responses":"{\"Q0\":\"Fox Sparrow\"}","bird":["Fox Sparrow"],"family":["New World Sparrows and Allies"],"class":["901"],"trial_type":"image-multi-choice","trial_index":240,"time_elapsed":1490957,"internal_node_id":"0.0-1.0-239.0"},{"rt":4331,"responses":"{\"Q0\":\"Orange-crowned Warbler\"}","bird":["Orange-crowned Warbler"],"family":["Wood-Warblers"],"class":["867"],"trial_type":"image-multi-choice","trial_index":241,"time_elapsed":1496311,"internal_node_id":"0.0-1.0-240.0"},{"rt":2767,"responses":"{\"Q0\":\"White-crowned Sparrow\"}","bird":["White-crowned Sparrow"],"family":["New World Sparrows and Allies"],"class":["766"],"trial_type":"image-multi-choice","trial_index":242,"time_elapsed":1500092,"internal_node_id":"0.0-1.0-241.0"},{"rt":3022,"responses":"{\"Q0\":\"Lark Sparrow\"}","bird":["White-throated Sparrow"],"family":["New World Sparrows and Allies"],"class":["764"],"trial_type":"image-multi-choice","trial_index":243,"time_elapsed":1504142,"internal_node_id":"0.0-1.0-242.0"},{"rt":5427,"responses":"{\"Q0\":\"Song Sparrow\"}","bird":["Song Sparrow"],"family":["New World Sparrows and Allies"],"class":["902"],"trial_type":"image-multi-choice","trial_index":244,"time_elapsed":1510575,"internal_node_id":"0.0-1.0-243.0"},{"rt":2985,"responses":"{\"Q0\":\"Lark Sparrow\"}","bird":["Lark Sparrow"],"family":["New World Sparrows and Allies"],"class":["899"],"trial_type":"image-multi-choice","trial_index":245,"time_elapsed":1514576,"internal_node_id":"0.0-1.0-244.0"},{"rt":3227,"responses":"{\"Q0\":\"Lark Sparrow\"}","bird":["Vesper Sparrow"],"family":["New World Sparrows and Allies"],"class":["898"],"trial_type":"image-multi-choice","trial_index":246,"time_elapsed":1518824,"internal_node_id":"0.0-1.0-245.0"},{"rt":3015,"responses":"{\"Q0\":\"Lark Sparrow\"}","bird":["Lark Sparrow"],"family":["New World Sparrows and Allies"],"class":["899"],"trial_type":"image-multi-choice","trial_index":247,"time_elapsed":1522863,"internal_node_id":"0.0-1.0-246.0"},{"rt":3342,"responses":"{\"Q0\":\"American Tree Sparrow\"}","bird":["American Tree Sparrow"],"family":["New World Sparrows and Allies"],"class":["894"],"trial_type":"image-multi-choice","trial_index":248,"time_elapsed":1527242,"internal_node_id":"0.0-1.0-247.0"},{"rt":4210,"responses":"{\"Q0\":\"Lark Sparrow\"}","bird":["Black-and-white Warbler"],"family":["Wood-Warblers"],"class":["864"],"trial_type":"image-multi-choice","trial_index":249,"time_elapsed":1532475,"internal_node_id":"0.0-1.0-248.0"},{"rt":2980,"responses":"{\"Q0\":\"Lark Sparrow\"}","bird":["Lark Sparrow"],"family":["New World Sparrows and Allies"],"class":["899"],"trial_type":"image-multi-choice","trial_index":250,"time_elapsed":1536477,"internal_node_id":"0.0-1.0-249.0"},{"rt":4019,"responses":"{\"Q0\":\"Orange-crowned Warbler\"}","bird":["Orange-crowned Warbler"],"family":["Wood-Warblers"],"class":["867"],"trial_type":"image-multi-choice","trial_index":251,"time_elapsed":1541525,"internal_node_id":"0.0-1.0-250.0"},{"rt":7691,"responses":"{\"Q0\":\"Blackburnian Warbler\"}","bird":["Blackburnian Warbler"],"family":["Wood-Warblers"],"class":["874"],"trial_type":"image-multi-choice","trial_index":252,"time_elapsed":1550240,"internal_node_id":"0.0-1.0-251.0"},{"rt":5963,"responses":"{\"Q0\":\"Vesper Sparrow\"}","bird":["Vesper Sparrow"],"family":["New World Sparrows and Allies"],"class":["898"],"trial_type":"image-multi-choice","trial_index":253,"time_elapsed":1557227,"internal_node_id":"0.0-1.0-252.0"},{"rt":7629,"responses":"{\"Q0\":\"Blackburnian Warbler\"}","bird":["Townsend's Warbler"],"family":["Wood-Warblers"],"class":["881"],"trial_type":"image-multi-choice","trial_index":254,"time_elapsed":1565876,"internal_node_id":"0.0-1.0-253.0"},{"rt":3897,"responses":"{\"Q0\":\"American Tree Sparrow\"}","bird":["Swamp Sparrow"],"family":["New World Sparrows and Allies"],"class":["904"],"trial_type":"image-multi-choice","trial_index":255,"time_elapsed":1570808,"internal_node_id":"0.0-1.0-254.0"},{"rt":4494,"responses":"{\"Q0\":\"Song Sparrow\"}","bird":["Song Sparrow"],"family":["New World Sparrows and Allies"],"class":["902"],"trial_type":"image-multi-choice","trial_index":256,"time_elapsed":1576309,"internal_node_id":"0.0-1.0-255.0"},{"rt":3377,"responses":"{\"Q0\":\"White-throated Sparrow\"}","bird":["Swamp Sparrow"],"family":["New World Sparrows and Allies"],"class":["904"],"trial_type":"image-multi-choice","trial_index":257,"time_elapsed":1580692,"internal_node_id":"0.0-1.0-256.0"},{"rt":4607,"responses":"{\"Q0\":\"Ovenbird\"}","bird":["Ovenbird"],"family":["Wood-Warblers"],"class":["860"],"trial_type":"image-multi-choice","trial_index":258,"time_elapsed":1586324,"internal_node_id":"0.0-1.0-257.0"},{"rt":3741,"responses":"{\"Q0\":\"Black-and-white Warbler\"}","bird":["Black-and-white Warbler"],"family":["Wood-Warblers"],"class":["864"],"trial_type":"image-multi-choice","trial_index":259,"time_elapsed":1591074,"internal_node_id":"0.0-1.0-258.0"},{"rt":2977,"responses":"{\"Q0\":\"American Tree Sparrow\"}","bird":["American Tree Sparrow"],"family":["New World Sparrows and Allies"],"class":["894"],"trial_type":"image-multi-choice","trial_index":260,"time_elapsed":1595058,"internal_node_id":"0.0-1.0-259.0"},{"rt":2368,"responses":"{\"Q0\":\"Yellow Warbler\"}","bird":["Yellow Warbler"],"family":["Wood-Warblers"],"class":["875"],"trial_type":"image-multi-choice","trial_index":261,"time_elapsed":1598439,"internal_node_id":"0.0-1.0-260.0"},{"rt":2998,"responses":"{\"Q0\":\"Vesper Sparrow\"}","bird":["Vesper Sparrow"],"family":["New World Sparrows and Allies"],"class":["898"],"trial_type":"image-multi-choice","trial_index":262,"time_elapsed":1602458,"internal_node_id":"0.0-1.0-261.0"},{"rt":4428,"responses":"{\"Q0\":\"Chipping Sparrow\"}","bird":["Chipping Sparrow"],"family":["New World Sparrows and Allies"],"class":["769"],"trial_type":"image-multi-choice","trial_index":263,"time_elapsed":1607893,"internal_node_id":"0.0-1.0-262.0"},{"rt":7317,"responses":"{\"Q0\":\"Black-and-white Warbler\"}","bird":["Northern Waterthrush"],"family":["Wood-Warblers"],"class":["862"],"trial_type":"image-multi-choice","trial_index":264,"time_elapsed":1616226,"internal_node_id":"0.0-1.0-263.0"},{"rt":5312,"responses":"{\"Q0\":\"Song Sparrow\"}","bird":["Song Sparrow"],"family":["New World Sparrows and Allies"],"class":["902"],"trial_type":"image-multi-choice","trial_index":265,"time_elapsed":1622560,"internal_node_id":"0.0-1.0-264.0"},{"rt":3851,"responses":"{\"Q0\":\"Nashville Warbler\"}","bird":["Nashville Warbler"],"family":["Wood-Warblers"],"class":["868"],"trial_type":"image-multi-choice","trial_index":266,"time_elapsed":1627427,"internal_node_id":"0.0-1.0-265.0"},{"rt":2496,"responses":"{\"Q0\":\"White-throated Sparrow\"}","bird":["White-throated Sparrow"],"family":["New World Sparrows and Allies"],"class":["764"],"trial_type":"image-multi-choice","trial_index":267,"time_elapsed":1630942,"internal_node_id":"0.0-1.0-266.0"},{"rt":2145,"responses":"{\"Q0\":\"White-crowned Sparrow\"}","bird":["White-crowned Sparrow"],"family":["New World Sparrows and Allies"],"class":["766"],"trial_type":"image-multi-choice","trial_index":268,"time_elapsed":1634109,"internal_node_id":"0.0-1.0-267.0"},{"rt":3312,"responses":"{\"Q0\":\"American Tree Sparrow\"}","bird":["American Tree Sparrow"],"family":["New World Sparrows and Allies"],"class":["894"],"trial_type":"image-multi-choice","trial_index":269,"time_elapsed":1638426,"internal_node_id":"0.0-1.0-268.0"},{"rt":6529,"responses":"{\"Q0\":\"White-throated Sparrow\"}","bird":["White-throated Sparrow"],"family":["New World Sparrows and Allies"],"class":["764"],"trial_type":"image-multi-choice","trial_index":270,"time_elapsed":1645976,"internal_node_id":"0.0-1.0-269.0"},{"rt":2561,"responses":"{\"Q0\":\"White-crowned Sparrow\"}","bird":["White-crowned Sparrow"],"family":["New World Sparrows and Allies"],"class":["766"],"trial_type":"image-multi-choice","trial_index":271,"time_elapsed":1649557,"internal_node_id":"0.0-1.0-270.0"},{"rt":2127,"responses":"{\"Q0\":\"Yellow Warbler\"}","bird":["Yellow Warbler"],"family":["Wood-Warblers"],"class":["875"],"trial_type":"image-multi-choice","trial_index":272,"time_elapsed":1652692,"internal_node_id":"0.0-1.0-271.0"},{"rt":6159,"responses":"{\"Q0\":\"Lark Sparrow\"}","bird":["Chipping Sparrow"],"family":["New World Sparrows and Allies"],"class":["769"],"trial_type":"image-multi-choice","trial_index":273,"time_elapsed":1659857,"internal_node_id":"0.0-1.0-272.0"},{"rt":4144,"responses":"{\"Q0\":\"Northern Waterthrush\"}","bird":["Ovenbird"],"family":["Wood-Warblers"],"class":["860"],"trial_type":"image-multi-choice","trial_index":274,"time_elapsed":1665025,"internal_node_id":"0.0-1.0-273.0"},{"rt":3326,"responses":"{\"Q0\":\"Northern Waterthrush\"}","bird":["Northern Waterthrush"],"family":["Wood-Warblers"],"class":["862"],"trial_type":"image-multi-choice","trial_index":275,"time_elapsed":1669373,"internal_node_id":"0.0-1.0-274.0"},{"rt":2744,"responses":"{\"Q0\":\"Ovenbird\"}","bird":["Ovenbird"],"family":["Wood-Warblers"],"class":["860"],"trial_type":"image-multi-choice","trial_index":276,"time_elapsed":1673140,"internal_node_id":"0.0-1.0-275.0"},{"rt":7172,"responses":"{\"Q0\":\"Magnolia Warbler\"}","bird":["Black-and-white Warbler"],"family":["Wood-Warblers"],"class":["864"],"trial_type":"image-multi-choice","trial_index":277,"time_elapsed":1681341,"internal_node_id":"0.0-1.0-276.0"},{"rt":5296,"responses":"{\"Q0\":\"White-throated Sparrow\"}","bird":["Chipping Sparrow"],"family":["New World Sparrows and Allies"],"class":["769"],"trial_type":"image-multi-choice","trial_index":278,"time_elapsed":1687659,"internal_node_id":"0.0-1.0-277.0"},{"rt":3478,"responses":"{\"Q0\":\"Fox Sparrow\"}","bird":["Fox Sparrow"],"family":["New World Sparrows and Allies"],"class":["901"],"trial_type":"image-multi-choice","trial_index":279,"time_elapsed":1692142,"internal_node_id":"0.0-1.0-278.0"},{"rt":4630,"responses":"{\"Q0\":\"Magnolia Warbler\"}","bird":["Magnolia Warbler"],"family":["Wood-Warblers"],"class":["758"],"trial_type":"image-multi-choice","trial_index":280,"time_elapsed":1697793,"internal_node_id":"0.0-1.0-279.0"},{"rt":3063,"responses":"{\"Q0\":\"White-crowned Sparrow\"}","bird":["White-crowned Sparrow"],"family":["New World Sparrows and Allies"],"class":["766"],"trial_type":"image-multi-choice","trial_index":281,"time_elapsed":1701875,"internal_node_id":"0.0-1.0-280.0"},{"rt":1943,"responses":"{\"Q0\":\"White-throated Sparrow\"}","bird":["White-throated Sparrow"],"family":["New World Sparrows and Allies"],"class":["764"],"trial_type":"image-multi-choice","trial_index":282,"time_elapsed":1704824,"internal_node_id":"0.0-1.0-281.0"},{"rt":3770,"responses":"{\"Q0\":\"American Tree Sparrow\"}","bird":["Swamp Sparrow"],"family":["New World Sparrows and Allies"],"class":["904"],"trial_type":"image-multi-choice","trial_index":283,"time_elapsed":1709605,"internal_node_id":"0.0-1.0-282.0"},{"rt":3345,"responses":"{\"Q0\":\"Blackburnian Warbler\"}","bird":["Magnolia Warbler"],"family":["Wood-Warblers"],"class":["758"],"trial_type":"image-multi-choice","trial_index":284,"time_elapsed":1713975,"internal_node_id":"0.0-1.0-283.0"},{"rt":3262,"responses":"{\"Q0\":\"Nashville Warbler\"}","bird":["Orange-crowned Warbler"],"family":["Wood-Warblers"],"class":["867"],"trial_type":"image-multi-choice","trial_index":285,"time_elapsed":1718242,"internal_node_id":"0.0-1.0-284.0"},{"rt":3396,"responses":"{\"Q0\":\"Black-and-white Warbler\"}","bird":["Magnolia Warbler"],"family":["Wood-Warblers"],"class":["758"],"trial_type":"image-multi-choice","trial_index":286,"time_elapsed":1722658,"internal_node_id":"0.0-1.0-285.0"},{"rt":3845,"responses":"{\"Q0\":\"Vesper Sparrow\"}","bird":["Vesper Sparrow"],"family":["New World Sparrows and Allies"],"class":["898"],"trial_type":"image-multi-choice","trial_index":287,"time_elapsed":1727523,"internal_node_id":"0.0-1.0-286.0"},{"rt":8550,"responses":"{\"Q0\":\"Northern Waterthrush\"}","bird":["Northern Waterthrush"],"family":["Wood-Warblers"],"class":["862"],"trial_type":"image-multi-choice","trial_index":288,"time_elapsed":1737105,"internal_node_id":"0.0-1.0-287.0"},{"rt":4602,"responses":"{\"Q0\":\"Black-and-white Warbler\"}","bird":["Blackburnian Warbler"],"family":["Wood-Warblers"],"class":["874"],"trial_type":"image-multi-choice","trial_index":289,"time_elapsed":1742725,"internal_node_id":"0.0-1.0-288.0"},{"rt":3095,"responses":"{\"Q0\":\"Orange-crowned Warbler\"}","bird":["Tennessee Warbler"],"family":["Wood-Warblers"],"class":["866"],"trial_type":"image-multi-choice","trial_index":290,"time_elapsed":1746840,"internal_node_id":"0.0-1.0-289.0"},{"rt":2877,"responses":"{\"Q0\":\"Lark Sparrow\"}","bird":["Lark Sparrow"],"family":["New World Sparrows and Allies"],"class":["899"],"trial_type":"image-multi-choice","trial_index":291,"time_elapsed":1750740,"internal_node_id":"0.0-1.0-290.0"},{"rt":5063,"responses":"{\"Q0\":\"Blackburnian Warbler\"}","bird":["Black-and-white Warbler"],"family":["Wood-Warblers"],"class":["864"],"trial_type":"image-multi-choice","trial_index":292,"time_elapsed":1756810,"internal_node_id":"0.0-1.0-291.0"},{"rt":3197,"responses":"{\"Q0\":\"Song Sparrow\"}","bird":["Lincoln's Sparrow"],"family":["New World Sparrows and Allies"],"class":["903"],"trial_type":"image-multi-choice","trial_index":293,"time_elapsed":1761026,"internal_node_id":"0.0-1.0-292.0"},{"rt":6327,"responses":"{\"Q0\":\"Tennessee Warbler\"}","bird":["Tennessee Warbler"],"family":["Wood-Warblers"],"class":["866"],"trial_type":"image-multi-choice","trial_index":294,"time_elapsed":1768372,"internal_node_id":"0.0-1.0-293.0"},{"rt":3596,"responses":"{\"Q0\":\"Northern Waterthrush\"}","bird":["Ovenbird"],"family":["Wood-Warblers"],"class":["860"],"trial_type":"image-multi-choice","trial_index":295,"time_elapsed":1772975,"internal_node_id":"0.0-1.0-294.0"},{"rt":2659,"responses":"{\"Q0\":\"Vesper Sparrow\"}","bird":["Vesper Sparrow"],"family":["New World Sparrows and Allies"],"class":["898"],"trial_type":"image-multi-choice","trial_index":296,"time_elapsed":1776655,"internal_node_id":"0.0-1.0-295.0"},{"rt":3676,"responses":"{\"Q0\":\"Northern Waterthrush\"}","bird":["Northern Waterthrush"],"family":["Wood-Warblers"],"class":["862"],"trial_type":"image-multi-choice","trial_index":297,"time_elapsed":1781356,"internal_node_id":"0.0-1.0-296.0"},{"rt":5796,"responses":"{\"Q0\":\"Vesper Sparrow\"}","bird":["Chipping Sparrow"],"family":["New World Sparrows and Allies"],"class":["769"],"trial_type":"image-multi-choice","trial_index":298,"time_elapsed":1788158,"internal_node_id":"0.0-1.0-297.0"},{"rt":3945,"responses":"{\"Q0\":\"Lark Sparrow\"}","bird":["Lark Sparrow"],"family":["New World Sparrows and Allies"],"class":["899"],"trial_type":"image-multi-choice","trial_index":299,"time_elapsed":1793108,"internal_node_id":"0.0-1.0-298.0"},{"rt":2258,"responses":"{\"Q0\":\"Yellow Warbler\"}","bird":["Yellow Warbler"],"family":["Wood-Warblers"],"class":["875"],"trial_type":"image-multi-choice","trial_index":300,"time_elapsed":1829622,"internal_node_id":"0.0-1.0-299.0"},{"view_history":"[{\"page_index\":0,\"viewing_time\":1930}]","rt":1930,"trial_type":"instructions","trial_index":301,"time_elapsed":1832559,"internal_node_id":"0.0-2.0"}]