"view_history","rt","trial_type","trial_index","time_elapsed","internal_node_id","responses","bird","family","class"
"[{""page_index"":0,""viewing_time"":27897}]","27897","instructions","0","27913","0.0-0.0","","","",""
"","9402","image-multi-choice","1","38340","0.0-1.0-0.0","{""Q0"":""Chipping Sparrow""}","American Tree Sparrow","New World Sparrows and Allies","894"
"","25202","image-multi-choice","2","64549","0.0-1.0-1.0","{""Q0"":""Orange-crowned Warbler""}","Tennessee Warbler","Wood-Warblers","866"
"","27740","image-multi-choice","3","93295","0.0-1.0-2.0","{""Q0"":""White-crowned Sparrow""}","White-crowned Sparrow","New World Sparrows and Allies","766"
"","18814","image-multi-choice","4","113116","0.0-1.0-3.0","{""Q0"":""American Tree Sparrow""}","American Tree Sparrow","New World Sparrows and Allies","894"
"","8005","image-multi-choice","5","122125","0.0-1.0-4.0","{""Q0"":""White-crowned Sparrow""}","White-crowned Sparrow","New World Sparrows and Allies","766"
"","16143","image-multi-choice","6","139275","0.0-1.0-5.0","{""Q0"":""Townsend's Warbler""}","Townsend's Warbler","Wood-Warblers","881"
"","14142","image-multi-choice","7","154422","0.0-1.0-6.0","{""Q0"":""Lincoln's Sparrow""}","Vesper Sparrow","New World Sparrows and Allies","898"
"","18198","image-multi-choice","8","173641","0.0-1.0-7.0","{""Q0"":""Orange-crowned Warbler""}","Nashville Warbler","Wood-Warblers","868"
"","21716","image-multi-choice","9","196364","0.0-1.0-8.0","{""Q0"":""Nashville Warbler""}","Northern Waterthrush","Wood-Warblers","862"
"","6317","image-multi-choice","10","203687","0.0-1.0-9.0","{""Q0"":""Ovenbird""}","Ovenbird","Wood-Warblers","860"
"","9739","image-multi-choice","11","214431","0.0-1.0-10.0","{""Q0"":""Swamp Sparrow""}","Lincoln's Sparrow","New World Sparrows and Allies","903"
"","8221","image-multi-choice","12","223658","0.0-1.0-11.0","{""Q0"":""Blackburnian Warbler""}","Townsend's Warbler","Wood-Warblers","881"
"","17647","image-multi-choice","13","242307","0.0-1.0-12.0","{""Q0"":""Ovenbird""}","Fox Sparrow","New World Sparrows and Allies","901"
"","16411","image-multi-choice","14","259723","0.0-1.0-13.0","{""Q0"":""Nashville Warbler""}","Blackburnian Warbler","Wood-Warblers","874"
"","8503","image-multi-choice","15","269233","0.0-1.0-14.0","{""Q0"":""Vesper Sparrow""}","Vesper Sparrow","New World Sparrows and Allies","898"
"","6704","image-multi-choice","16","276940","0.0-1.0-15.0","{""Q0"":""Black-and-white Warbler""}","Black-and-white Warbler","Wood-Warblers","864"
"","7270","image-multi-choice","17","285215","0.0-1.0-16.0","{""Q0"":""Northern Waterthrush""}","Nashville Warbler","Wood-Warblers","868"
"","9557","image-multi-choice","18","295779","0.0-1.0-17.0","{""Q0"":""American Tree Sparrow""}","Lincoln's Sparrow","New World Sparrows and Allies","903"
"","9044","image-multi-choice","19","305829","0.0-1.0-18.0","{""Q0"":""Yellow Warbler""}","Nashville Warbler","Wood-Warblers","868"
"","22854","image-multi-choice","20","329697","0.0-1.0-19.0","{""Q0"":""Lincoln's Sparrow""}","Lark Sparrow","New World Sparrows and Allies","899"
"","6488","image-multi-choice","21","337200","0.0-1.0-20.0","{""Q0"":""Magnolia Warbler""}","Magnolia Warbler","Wood-Warblers","758"
"","8269","image-multi-choice","22","346476","0.0-1.0-21.0","{""Q0"":""Magnolia Warbler""}","Townsend's Warbler","Wood-Warblers","881"
"","10026","image-multi-choice","23","357506","0.0-1.0-22.0","{""Q0"":""Fox Sparrow""}","Swamp Sparrow","New World Sparrows and Allies","904"
"","9400","image-multi-choice","24","367911","0.0-1.0-23.0","{""Q0"":""Orange-crowned Warbler""}","Tennessee Warbler","Wood-Warblers","866"
"","4663","image-multi-choice","25","373584","0.0-1.0-24.0","{""Q0"":""Ovenbird""}","Ovenbird","Wood-Warblers","860"
"","5785","image-multi-choice","26","380392","0.0-1.0-25.0","{""Q0"":""White-crowned Sparrow""}","White-crowned Sparrow","New World Sparrows and Allies","766"
"","7971","image-multi-choice","27","389368","0.0-1.0-26.0","{""Q0"":""Vesper Sparrow""}","Vesper Sparrow","New World Sparrows and Allies","898"
"","7169","image-multi-choice","28","397541","0.0-1.0-27.0","{""Q0"":""Yellow Warbler""}","Orange-crowned Warbler","Wood-Warblers","867"
"","10638","image-multi-choice","29","409189","0.0-1.0-28.0","{""Q0"":""American Tree Sparrow""}","American Tree Sparrow","New World Sparrows and Allies","894"
"","9585","image-multi-choice","30","419779","0.0-1.0-29.0","{""Q0"":""Townsend's Warbler""}","Tennessee Warbler","Wood-Warblers","866"
"","7736","image-multi-choice","31","428522","0.0-1.0-30.0","{""Q0"":""Magnolia Warbler""}","Magnolia Warbler","Wood-Warblers","758"
"","6751","image-multi-choice","32","436280","0.0-1.0-31.0","{""Q0"":""Magnolia Warbler""}","Blackburnian Warbler","Wood-Warblers","874"
"","13207","image-multi-choice","33","450494","0.0-1.0-32.0","{""Q0"":""Nashville Warbler""}","Tennessee Warbler","Wood-Warblers","866"
"","9575","image-multi-choice","34","461088","0.0-1.0-33.0","{""Q0"":""Song Sparrow""}","Vesper Sparrow","New World Sparrows and Allies","898"
"","10623","image-multi-choice","35","472716","0.0-1.0-34.0","{""Q0"":""Nashville Warbler""}","Orange-crowned Warbler","Wood-Warblers","867"
"","6317","image-multi-choice","36","480040","0.0-1.0-35.0","{""Q0"":""White-crowned Sparrow""}","White-crowned Sparrow","New World Sparrows and Allies","766"
"","5718","image-multi-choice","37","486763","0.0-1.0-36.0","{""Q0"":""Fox Sparrow""}","Fox Sparrow","New World Sparrows and Allies","901"
"","7718","image-multi-choice","38","495488","0.0-1.0-37.0","{""Q0"":""Swamp Sparrow""}","Swamp Sparrow","New World Sparrows and Allies","904"
"","5635","image-multi-choice","39","502129","0.0-1.0-38.0","{""Q0"":""Yellow Warbler""}","Yellow Warbler","Wood-Warblers","875"
"","8368","image-multi-choice","40","511502","0.0-1.0-39.0","{""Q0"":""Black-and-white Warbler""}","Black-and-white Warbler","Wood-Warblers","864"
"","17449","image-multi-choice","41","529960","0.0-1.0-40.0","{""Q0"":""Lark Sparrow""}","Fox Sparrow","New World Sparrows and Allies","901"
"","6432","image-multi-choice","42","537396","0.0-1.0-41.0","{""Q0"":""Northern Waterthrush""}","Northern Waterthrush","Wood-Warblers","862"
"","7399","image-multi-choice","43","545804","0.0-1.0-42.0","{""Q0"":""Tennessee Warbler""}","Nashville Warbler","Wood-Warblers","868"
"","6548","image-multi-choice","44","553357","0.0-1.0-43.0","{""Q0"":""Black-and-white Warbler""}","Blackburnian Warbler","Wood-Warblers","874"
"","10807","image-multi-choice","45","565173","0.0-1.0-44.0","{""Q0"":""Nashville Warbler""}","Orange-crowned Warbler","Wood-Warblers","867"
"","10714","image-multi-choice","46","576900","0.0-1.0-45.0","{""Q0"":""Townsend's Warbler""}","Blackburnian Warbler","Wood-Warblers","874"
"","14060","image-multi-choice","47","591967","0.0-1.0-46.0","{""Q0"":""Nashville Warbler""}","Nashville Warbler","Wood-Warblers","868"
"","5450","image-multi-choice","48","598421","0.0-1.0-47.0","{""Q0"":""Northern Waterthrush""}","Northern Waterthrush","Wood-Warblers","862"
"","16610","image-multi-choice","49","616037","0.0-1.0-48.0","{""Q0"":""Song Sparrow""}","Fox Sparrow","New World Sparrows and Allies","901"
"","8654","image-multi-choice","50","625698","0.0-1.0-49.0","{""Q0"":""Swamp Sparrow""}","Swamp Sparrow","New World Sparrows and Allies","904"
"","15560","image-multi-choice","51","642266","0.0-1.0-50.0","{""Q0"":""Tennessee Warbler""}","Nashville Warbler","Wood-Warblers","868"
"","8554","image-multi-choice","52","651839","0.0-1.0-51.0","{""Q0"":""Black-and-white Warbler""}","Black-and-white Warbler","Wood-Warblers","864"
"","7337","image-multi-choice","53","660183","0.0-1.0-52.0","{""Q0"":""Chipping Sparrow""}","American Tree Sparrow","New World Sparrows and Allies","894"
"","5951","image-multi-choice","54","667139","0.0-1.0-53.0","{""Q0"":""Black-and-white Warbler""}","Black-and-white Warbler","Wood-Warblers","864"
"","11237","image-multi-choice","55","679383","0.0-1.0-54.0","{""Q0"":""White-crowned Sparrow""}","Townsend's Warbler","Wood-Warblers","881"
"","6383","image-multi-choice","56","686776","0.0-1.0-55.0","{""Q0"":""Fox Sparrow""}","Lark Sparrow","New World Sparrows and Allies","899"
"","3849","image-multi-choice","57","691631","0.0-1.0-56.0","{""Q0"":""Ovenbird""}","Ovenbird","Wood-Warblers","860"
"","8855","image-multi-choice","58","701491","0.0-1.0-57.0","{""Q0"":""Song Sparrow""}","Song Sparrow","New World Sparrows and Allies","902"
"","8871","image-multi-choice","59","711368","0.0-1.0-58.0","{""Q0"":""White-throated Sparrow""}","Chipping Sparrow","New World Sparrows and Allies","769"
"","3880","image-multi-choice","60","779655","0.0-1.0-59.0","{""Q0"":""Northern Waterthrush""}","Black-and-white Warbler","Wood-Warblers","864"
"","18910","image-multi-choice","61","799566","0.0-1.0-60.0","{""Q0"":""Lark Sparrow""}","Chipping Sparrow","New World Sparrows and Allies","769"
"","8049","image-multi-choice","62","808625","0.0-1.0-61.0","{""Q0"":""White-throated Sparrow""}","Swamp Sparrow","New World Sparrows and Allies","904"
"","7515","image-multi-choice","63","817168","0.0-1.0-62.0","{""Q0"":""Orange-crowned Warbler""}","Nashville Warbler","Wood-Warblers","868"
"","7520","image-multi-choice","64","825693","0.0-1.0-63.0","{""Q0"":""Swamp Sparrow""}","Lincoln's Sparrow","New World Sparrows and Allies","903"
"","7955","image-multi-choice","65","834653","0.0-1.0-64.0","{""Q0"":""Blackburnian Warbler""}","Black-and-white Warbler","Wood-Warblers","864"
"","9554","image-multi-choice","66","845213","0.0-1.0-65.0","{""Q0"":""American Tree Sparrow""}","Fox Sparrow","New World Sparrows and Allies","901"
"","7287","image-multi-choice","67","853506","0.0-1.0-66.0","{""Q0"":""Blackburnian Warbler""}","Townsend's Warbler","Wood-Warblers","881"
"","5783","image-multi-choice","68","860296","0.0-1.0-67.0","{""Q0"":""Yellow Warbler""}","Yellow Warbler","Wood-Warblers","875"
"","7720","image-multi-choice","69","869021","0.0-1.0-68.0","{""Q0"":""Nashville Warbler""}","Tennessee Warbler","Wood-Warblers","866"
"","7950","image-multi-choice","70","877978","0.0-1.0-69.0","{""Q0"":""Northern Waterthrush""}","Ovenbird","Wood-Warblers","860"
"","7105","image-multi-choice","71","886104","0.0-1.0-70.0","{""Q0"":""Blackburnian Warbler""}","Townsend's Warbler","Wood-Warblers","881"
"","7206","image-multi-choice","72","894315","0.0-1.0-71.0","{""Q0"":""Black-and-white Warbler""}","Black-and-white Warbler","Wood-Warblers","864"
"","8437","image-multi-choice","73","903756","0.0-1.0-72.0","{""Q0"":""Song Sparrow""}","Song Sparrow","New World Sparrows and Allies","902"
"","5417","image-multi-choice","74","910178","0.0-1.0-73.0","{""Q0"":""Northern Waterthrush""}","Northern Waterthrush","Wood-Warblers","862"
"","7169","image-multi-choice","75","918351","0.0-1.0-74.0","{""Q0"":""Swamp Sparrow""}","Swamp Sparrow","New World Sparrows and Allies","904"
"","5185","image-multi-choice","76","924542","0.0-1.0-75.0","{""Q0"":""White-crowned Sparrow""}","White-crowned Sparrow","New World Sparrows and Allies","766"
"","5966","image-multi-choice","77","931516","0.0-1.0-76.0","{""Q0"":""White-throated Sparrow""}","White-throated Sparrow","New World Sparrows and Allies","764"
"","6950","image-multi-choice","78","939473","0.0-1.0-77.0","{""Q0"":""Magnolia Warbler""}","Townsend's Warbler","Wood-Warblers","881"
"","15579","image-multi-choice","79","956057","0.0-1.0-78.0","{""Q0"":""Lark Sparrow""}","Vesper Sparrow","New World Sparrows and Allies","898"
"","8246","image-multi-choice","80","965317","0.0-1.0-79.0","{""Q0"":""Fox Sparrow""}","White-throated Sparrow","New World Sparrows and Allies","764"
"","5984","image-multi-choice","81","972306","0.0-1.0-80.0","{""Q0"":""Northern Waterthrush""}","Northern Waterthrush","Wood-Warblers","862"
"","4014","image-multi-choice","82","977325","0.0-1.0-81.0","{""Q0"":""Yellow Warbler""}","Yellow Warbler","Wood-Warblers","875"
"","8636","image-multi-choice","83","986970","0.0-1.0-82.0","{""Q0"":""Tennessee Warbler""}","Nashville Warbler","Wood-Warblers","868"
"","7269","image-multi-choice","84","995246","0.0-1.0-83.0","{""Q0"":""Fox Sparrow""}","Lark Sparrow","New World Sparrows and Allies","899"
"","5635","image-multi-choice","85","1001885","0.0-1.0-84.0","{""Q0"":""Orange-crowned Warbler""}","Orange-crowned Warbler","Wood-Warblers","867"
"","6886","image-multi-choice","86","1009776","0.0-1.0-85.0","{""Q0"":""Tennessee Warbler""}","Nashville Warbler","Wood-Warblers","868"
"","5313","image-multi-choice","87","1016098","0.0-1.0-86.0","{""Q0"":""Black-and-white Warbler""}","Black-and-white Warbler","Wood-Warblers","864"
"","8434","image-multi-choice","88","1025540","0.0-1.0-87.0","{""Q0"":""Orange-crowned Warbler""}","Nashville Warbler","Wood-Warblers","868"
"","4234","image-multi-choice","89","1030780","0.0-1.0-88.0","{""Q0"":""Ovenbird""}","Ovenbird","Wood-Warblers","860"
"","8820","image-multi-choice","90","1040605","0.0-1.0-89.0","{""Q0"":""Blackburnian Warbler""}","Black-and-white Warbler","Wood-Warblers","864"
"","12510","image-multi-choice","91","1054137","0.0-1.0-90.0","{""Q0"":""White-throated Sparrow""}","Chipping Sparrow","New World Sparrows and Allies","769"
"","9841","image-multi-choice","92","1064982","0.0-1.0-91.0","{""Q0"":""Nashville Warbler""}","Tennessee Warbler","Wood-Warblers","866"
"","5419","image-multi-choice","93","1071405","0.0-1.0-92.0","{""Q0"":""White-throated Sparrow""}","White-throated Sparrow","New World Sparrows and Allies","764"
"","7670","image-multi-choice","94","1080079","0.0-1.0-93.0","{""Q0"":""Song Sparrow""}","Song Sparrow","New World Sparrows and Allies","902"
"","7740","image-multi-choice","95","1088820","0.0-1.0-94.0","{""Q0"":""Magnolia Warbler""}","Blackburnian Warbler","Wood-Warblers","874"
"","7319","image-multi-choice","96","1097144","0.0-1.0-95.0","{""Q0"":""Chipping Sparrow""}","American Tree Sparrow","New World Sparrows and Allies","894"
"","5869","image-multi-choice","97","1104018","0.0-1.0-96.0","{""Q0"":""White-throated Sparrow""}","White-throated Sparrow","New World Sparrows and Allies","764"
"","5617","image-multi-choice","98","1110641","0.0-1.0-97.0","{""Q0"":""Tennessee Warbler""}","Orange-crowned Warbler","Wood-Warblers","867"
"","3532","image-multi-choice","99","1115180","0.0-1.0-98.0","{""Q0"":""Yellow Warbler""}","Yellow Warbler","Wood-Warblers","875"
"","5433","image-multi-choice","100","1121618","0.0-1.0-99.0","{""Q0"":""Ovenbird""}","Fox Sparrow","New World Sparrows and Allies","901"
"","6952","image-multi-choice","101","1129575","0.0-1.0-100.0","{""Q0"":""Fox Sparrow""}","Chipping Sparrow","New World Sparrows and Allies","769"
"","3496","image-multi-choice","102","1134079","0.0-1.0-101.0","{""Q0"":""Northern Waterthrush""}","Northern Waterthrush","Wood-Warblers","862"
"","11608","image-multi-choice","103","1146693","0.0-1.0-102.0","{""Q0"":""Lark Sparrow""}","Swamp Sparrow","New World Sparrows and Allies","904"
"","4116","image-multi-choice","104","1151832","0.0-1.0-103.0","{""Q0"":""Northern Waterthrush""}","Northern Waterthrush","Wood-Warblers","862"
"","3048","image-multi-choice","105","1155885","0.0-1.0-104.0","{""Q0"":""Yellow Warbler""}","Yellow Warbler","Wood-Warblers","875"
"","7819","image-multi-choice","106","1164710","0.0-1.0-105.0","{""Q0"":""Blackburnian Warbler""}","Magnolia Warbler","Wood-Warblers","758"
"","17394","image-multi-choice","107","1183113","0.0-1.0-106.0","{""Q0"":""Townsend's Warbler""}","Townsend's Warbler","Wood-Warblers","881"
"","7870","image-multi-choice","108","1191987","0.0-1.0-107.0","{""Q0"":""White-throated Sparrow""}","Swamp Sparrow","New World Sparrows and Allies","904"
"","8951","image-multi-choice","109","1201944","0.0-1.0-108.0","{""Q0"":""Fox Sparrow""}","Fox Sparrow","New World Sparrows and Allies","901"
"","4267","image-multi-choice","110","1207219","0.0-1.0-109.0","{""Q0"":""Yellow Warbler""}","Yellow Warbler","Wood-Warblers","875"
"","5602","image-multi-choice","111","1213826","0.0-1.0-110.0","{""Q0"":""Ovenbird""}","Lincoln's Sparrow","New World Sparrows and Allies","903"
"","6098","image-multi-choice","112","1220930","0.0-1.0-111.0","{""Q0"":""Magnolia Warbler""}","Townsend's Warbler","Wood-Warblers","881"
"","3615","image-multi-choice","113","1225552","0.0-1.0-112.0","{""Q0"":""White-crowned Sparrow""}","White-crowned Sparrow","New World Sparrows and Allies","766"
"","17149","image-multi-choice","114","1243706","0.0-1.0-113.0","{""Q0"":""Townsend's Warbler""}","Blackburnian Warbler","Wood-Warblers","874"
"","5601","image-multi-choice","115","1250310","0.0-1.0-114.0","{""Q0"":""Orange-crowned Warbler""}","Nashville Warbler","Wood-Warblers","868"
"","5377","image-multi-choice","116","1256699","0.0-1.0-115.0","{""Q0"":""Orange-crowned Warbler""}","Tennessee Warbler","Wood-Warblers","866"
"","6886","image-multi-choice","117","1264590","0.0-1.0-116.0","{""Q0"":""Vesper Sparrow""}","Vesper Sparrow","New World Sparrows and Allies","898"
"","7569","image-multi-choice","118","1273166","0.0-1.0-117.0","{""Q0"":""Swamp Sparrow""}","Swamp Sparrow","New World Sparrows and Allies","904"
"","3547","image-multi-choice","119","1277718","0.0-1.0-118.0","{""Q0"":""White-crowned Sparrow""}","White-crowned Sparrow","New World Sparrows and Allies","766"
"","9155","image-multi-choice","120","1334979","0.0-1.0-119.0","{""Q0"":""Magnolia Warbler""}","Blackburnian Warbler","Wood-Warblers","874"
"","9153","image-multi-choice","121","1345152","0.0-1.0-120.0","{""Q0"":""Lark Sparrow""}","Fox Sparrow","New World Sparrows and Allies","901"
"","7104","image-multi-choice","122","1353263","0.0-1.0-121.0","{""Q0"":""Vesper Sparrow""}","Vesper Sparrow","New World Sparrows and Allies","898"
"","4748","image-multi-choice","123","1359017","0.0-1.0-122.0","{""Q0"":""Yellow Warbler""}","Yellow Warbler","Wood-Warblers","875"
"","7351","image-multi-choice","124","1367374","0.0-1.0-123.0","{""Q0"":""Song Sparrow""}","Song Sparrow","New World Sparrows and Allies","902"
"","12790","image-multi-choice","125","1381171","0.0-1.0-124.0","{""Q0"":""Townsend's Warbler""}","Townsend's Warbler","Wood-Warblers","881"
"","5919","image-multi-choice","126","1388095","0.0-1.0-125.0","{""Q0"":""White-crowned Sparrow""}","White-crowned Sparrow","New World Sparrows and Allies","766"
"","5785","image-multi-choice","127","1394886","0.0-1.0-126.0","{""Q0"":""Song Sparrow""}","Song Sparrow","New World Sparrows and Allies","902"
"","3130","image-multi-choice","128","1399023","0.0-1.0-127.0","{""Q0"":""Ovenbird""}","Ovenbird","Wood-Warblers","860"
"","5966","image-multi-choice","129","1405995","0.0-1.0-128.0","{""Q0"":""Magnolia Warbler""}","Magnolia Warbler","Wood-Warblers","758"
"","12157","image-multi-choice","130","1419159","0.0-1.0-129.0","{""Q0"":""American Tree Sparrow""}","Swamp Sparrow","New World Sparrows and Allies","904"
"","8187","image-multi-choice","131","1428368","0.0-1.0-130.0","{""Q0"":""Fox Sparrow""}","Lark Sparrow","New World Sparrows and Allies","899"
"","4434","image-multi-choice","132","1433807","0.0-1.0-131.0","{""Q0"":""Blackburnian Warbler""}","Magnolia Warbler","Wood-Warblers","758"
"","14157","image-multi-choice","133","1448972","0.0-1.0-132.0","{""Q0"":""Lark Sparrow""}","White-throated Sparrow","New World Sparrows and Allies","764"
"","11838","image-multi-choice","134","1461833","0.0-1.0-133.0","{""Q0"":""Townsend's Warbler""}","Magnolia Warbler","Wood-Warblers","758"
"","4685","image-multi-choice","135","1467524","0.0-1.0-134.0","{""Q0"":""Yellow Warbler""}","Yellow Warbler","Wood-Warblers","875"
"","5617","image-multi-choice","136","1474146","0.0-1.0-135.0","{""Q0"":""Tennessee Warbler""}","Tennessee Warbler","Wood-Warblers","866"
"","3063","image-multi-choice","137","1478215","0.0-1.0-136.0","{""Q0"":""Ovenbird""}","Ovenbird","Wood-Warblers","860"
"","10245","image-multi-choice","138","1489462","0.0-1.0-137.0","{""Q0"":""Townsend's Warbler""}","Black-and-white Warbler","Wood-Warblers","864"
"","14540","image-multi-choice","139","1505011","0.0-1.0-138.0","{""Q0"":""American Tree Sparrow""}","Chipping Sparrow","New World Sparrows and Allies","769"
"","3949","image-multi-choice","140","1509967","0.0-1.0-139.0","{""Q0"":""Northern Waterthrush""}","Northern Waterthrush","Wood-Warblers","862"
"","8616","image-multi-choice","141","1519591","0.0-1.0-140.0","{""Q0"":""American Tree Sparrow""}","Vesper Sparrow","New World Sparrows and Allies","898"
"","4216","image-multi-choice","142","1524813","0.0-1.0-141.0","{""Q0"":""White-throated Sparrow""}","White-throated Sparrow","New World Sparrows and Allies","764"
"","4768","image-multi-choice","143","1530586","0.0-1.0-142.0","{""Q0"":""Blackburnian Warbler""}","Magnolia Warbler","Wood-Warblers","758"
"","8085","image-multi-choice","144","1539677","0.0-1.0-143.0","{""Q0"":""Black-and-white Warbler""}","Blackburnian Warbler","Wood-Warblers","874"
"","8221","image-multi-choice","145","1548904","0.0-1.0-144.0","{""Q0"":""Lark Sparrow""}","Lark Sparrow","New World Sparrows and Allies","899"
"","12793","image-multi-choice","146","1562702","0.0-1.0-145.0","{""Q0"":""Townsend's Warbler""}","Song Sparrow","New World Sparrows and Allies","902"
"","4983","image-multi-choice","147","1568692","0.0-1.0-146.0","{""Q0"":""White-crowned Sparrow""}","White-crowned Sparrow","New World Sparrows and Allies","766"
"","11105","image-multi-choice","148","1580802","0.0-1.0-147.0","{""Q0"":""Vesper Sparrow""}","Chipping Sparrow","New World Sparrows and Allies","769"
"","8827","image-multi-choice","149","1590642","0.0-1.0-148.0","{""Q0"":""White-throated Sparrow""}","Swamp Sparrow","New World Sparrows and Allies","904"
"","10396","image-multi-choice","150","1602053","0.0-1.0-149.0","{""Q0"":""Song Sparrow""}","Fox Sparrow","New World Sparrows and Allies","901"
"","2748","image-multi-choice","151","1605808","0.0-1.0-150.0","{""Q0"":""Yellow Warbler""}","Yellow Warbler","Wood-Warblers","875"
"","7168","image-multi-choice","152","1613982","0.0-1.0-151.0","{""Q0"":""Lincoln's Sparrow""}","White-crowned Sparrow","New World Sparrows and Allies","766"
"","7136","image-multi-choice","153","1622124","0.0-1.0-152.0","{""Q0"":""Ovenbird""}","Song Sparrow","New World Sparrows and Allies","902"
"","3130","image-multi-choice","154","1626260","0.0-1.0-153.0","{""Q0"":""Northern Waterthrush""}","Northern Waterthrush","Wood-Warblers","862"
"","5819","image-multi-choice","155","1633085","0.0-1.0-154.0","{""Q0"":""White-crowned Sparrow""}","White-crowned Sparrow","New World Sparrows and Allies","766"
"","2584","image-multi-choice","156","1636674","0.0-1.0-155.0","{""Q0"":""Yellow Warbler""}","Yellow Warbler","Wood-Warblers","875"
"","3996","image-multi-choice","157","1641677","0.0-1.0-156.0","{""Q0"":""White-throated Sparrow""}","White-throated Sparrow","New World Sparrows and Allies","764"
"","2996","image-multi-choice","158","1645678","0.0-1.0-157.0","{""Q0"":""White-crowned Sparrow""}","White-crowned Sparrow","New World Sparrows and Allies","766"
"","9972","image-multi-choice","159","1656658","0.0-1.0-158.0","{""Q0"":""Nashville Warbler""}","Townsend's Warbler","Wood-Warblers","881"
"","7937","image-multi-choice","160","1665600","0.0-1.0-159.0","{""Q0"":""Nashville Warbler""}","Tennessee Warbler","Wood-Warblers","866"
"","3196","image-multi-choice","161","1669801","0.0-1.0-160.0","{""Q0"":""White-throated Sparrow""}","White-throated Sparrow","New World Sparrows and Allies","764"
"","7722","image-multi-choice","162","1678531","0.0-1.0-161.0","{""Q0"":""Song Sparrow""}","Fox Sparrow","New World Sparrows and Allies","901"
"","4913","image-multi-choice","163","1684451","0.0-1.0-162.0","{""Q0"":""Fox Sparrow""}","Song Sparrow","New World Sparrows and Allies","902"
"","2661","image-multi-choice","164","1688135","0.0-1.0-163.0","{""Q0"":""White-crowned Sparrow""}","White-crowned Sparrow","New World Sparrows and Allies","766"
"","15213","image-multi-choice","165","1704354","0.0-1.0-164.0","{""Q0"":""Lincoln's Sparrow""}","Song Sparrow","New World Sparrows and Allies","902"
"","6601","image-multi-choice","166","1711964","0.0-1.0-165.0","{""Q0"":""Lark Sparrow""}","American Tree Sparrow","New World Sparrows and Allies","894"
"","4149","image-multi-choice","167","1717117","0.0-1.0-166.0","{""Q0"":""Orange-crowned Warbler""}","Orange-crowned Warbler","Wood-Warblers","867"
"","9722","image-multi-choice","168","1727845","0.0-1.0-167.0","{""Q0"":""Vesper Sparrow""}","Lincoln's Sparrow","New World Sparrows and Allies","903"
"","4682","image-multi-choice","169","1733534","0.0-1.0-168.0","{""Q0"":""Black-and-white Warbler""}","Blackburnian Warbler","Wood-Warblers","874"
"","5151","image-multi-choice","170","1739691","0.0-1.0-169.0","{""Q0"":""White-throated Sparrow""}","White-throated Sparrow","New World Sparrows and Allies","764"
"","6999","image-multi-choice","171","1747695","0.0-1.0-170.0","{""Q0"":""Fox Sparrow""}","Fox Sparrow","New World Sparrows and Allies","901"
"","9105","image-multi-choice","172","1757824","0.0-1.0-171.0","{""Q0"":""Lincoln's Sparrow""}","Chipping Sparrow","New World Sparrows and Allies","769"
"","8501","image-multi-choice","173","1767332","0.0-1.0-172.0","{""Q0"":""Swamp Sparrow""}","Swamp Sparrow","New World Sparrows and Allies","904"
"","7598","image-multi-choice","174","1775940","0.0-1.0-173.0","{""Q0"":""American Tree Sparrow""}","Lincoln's Sparrow","New World Sparrows and Allies","903"
"","5448","image-multi-choice","175","1782399","0.0-1.0-174.0","{""Q0"":""Swamp Sparrow""}","Swamp Sparrow","New World Sparrows and Allies","904"
"","4183","image-multi-choice","176","1787587","0.0-1.0-175.0","{""Q0"":""Blackburnian Warbler""}","Townsend's Warbler","Wood-Warblers","881"
"","8919","image-multi-choice","177","1797512","0.0-1.0-176.0","{""Q0"":""Chipping Sparrow""}","American Tree Sparrow","New World Sparrows and Allies","894"
"","6453","image-multi-choice","178","1804971","0.0-1.0-177.0","{""Q0"":""Fox Sparrow""}","Fox Sparrow","New World Sparrows and Allies","901"
"","7736","image-multi-choice","179","1813712","0.0-1.0-178.0","{""Q0"":""Vesper Sparrow""}","Lincoln's Sparrow","New World Sparrows and Allies","903"
"","7539","image-multi-choice","180","1834583","0.0-1.0-179.0","{""Q0"":""Magnolia Warbler""}","Magnolia Warbler","Wood-Warblers","758"
"","4047","image-multi-choice","181","1839636","0.0-1.0-180.0","{""Q0"":""Orange-crowned Warbler""}","Orange-crowned Warbler","Wood-Warblers","867"
"","13673","image-multi-choice","182","1854316","0.0-1.0-181.0","{""Q0"":""Nashville Warbler""}","Tennessee Warbler","Wood-Warblers","866"
"","5164","image-multi-choice","183","1860491","0.0-1.0-182.0","{""Q0"":""Vesper Sparrow""}","Vesper Sparrow","New World Sparrows and Allies","898"
"","6785","image-multi-choice","184","1868283","0.0-1.0-183.0","{""Q0"":""Blackburnian Warbler""}","Blackburnian Warbler","Wood-Warblers","874"
"","14244","image-multi-choice","185","1883532","0.0-1.0-184.0","{""Q0"":""Song Sparrow""}","Lincoln's Sparrow","New World Sparrows and Allies","903"
"","7721","image-multi-choice","186","1892257","0.0-1.0-185.0","{""Q0"":""Magnolia Warbler""}","Townsend's Warbler","Wood-Warblers","881"
"","2829","image-multi-choice","187","1896092","0.0-1.0-186.0","{""Q0"":""Ovenbird""}","Ovenbird","Wood-Warblers","860"
"","6100","image-multi-choice","188","1903199","0.0-1.0-187.0","{""Q0"":""Orange-crowned Warbler""}","Orange-crowned Warbler","Wood-Warblers","867"
"","13143","image-multi-choice","189","1917348","0.0-1.0-188.0","{""Q0"":""Chipping Sparrow""}","Chipping Sparrow","New World Sparrows and Allies","769"
"","8902","image-multi-choice","190","1927255","0.0-1.0-189.0","{""Q0"":""Lincoln's Sparrow""}","American Tree Sparrow","New World Sparrows and Allies","894"
"","6203","image-multi-choice","191","1934466","0.0-1.0-190.0","{""Q0"":""Song Sparrow""}","Vesper Sparrow","New World Sparrows and Allies","898"
"","8353","image-multi-choice","192","1943840","0.0-1.0-191.0","{""Q0"":""Lincoln's Sparrow""}","Lincoln's Sparrow","New World Sparrows and Allies","903"
"","7769","image-multi-choice","193","1952614","0.0-1.0-192.0","{""Q0"":""Nashville Warbler""}","Tennessee Warbler","Wood-Warblers","866"
"","4597","image-multi-choice","194","1958218","0.0-1.0-193.0","{""Q0"":""Swamp Sparrow""}","American Tree Sparrow","New World Sparrows and Allies","894"
"","4518","image-multi-choice","195","1963744","0.0-1.0-194.0","{""Q0"":""White-throated Sparrow""}","Lark Sparrow","New World Sparrows and Allies","899"
"","8370","image-multi-choice","196","1973118","0.0-1.0-195.0","{""Q0"":""Orange-crowned Warbler""}","Tennessee Warbler","Wood-Warblers","866"
"","4163","image-multi-choice","197","1978287","0.0-1.0-196.0","{""Q0"":""Northern Waterthrush""}","Northern Waterthrush","Wood-Warblers","862"
"","3867","image-multi-choice","198","1983162","0.0-1.0-197.0","{""Q0"":""White-throated Sparrow""}","White-throated Sparrow","New World Sparrows and Allies","764"
"","3899","image-multi-choice","199","1988066","0.0-1.0-198.0","{""Q0"":""Yellow Warbler""}","Yellow Warbler","Wood-Warblers","875"
"","2947","image-multi-choice","200","1992020","0.0-1.0-199.0","{""Q0"":""White-crowned Sparrow""}","White-crowned Sparrow","New World Sparrows and Allies","766"
"","17743","image-multi-choice","201","2010771","0.0-1.0-200.0","{""Q0"":""American Tree Sparrow""}","American Tree Sparrow","New World Sparrows and Allies","894"
"","6661","image-multi-choice","202","2018444","0.0-1.0-201.0","{""Q0"":""Ovenbird""}","Ovenbird","Wood-Warblers","860"
"","5434","image-multi-choice","203","2024886","0.0-1.0-202.0","{""Q0"":""Magnolia Warbler""}","Magnolia Warbler","Wood-Warblers","758"
"","7118","image-multi-choice","204","2033009","0.0-1.0-203.0","{""Q0"":""Magnolia Warbler""}","Black-and-white Warbler","Wood-Warblers","864"
"","3379","image-multi-choice","205","2037397","0.0-1.0-204.0","{""Q0"":""Northern Waterthrush""}","Northern Waterthrush","Wood-Warblers","862"
"","6148","image-multi-choice","206","2044553","0.0-1.0-205.0","{""Q0"":""Chipping Sparrow""}","American Tree Sparrow","New World Sparrows and Allies","894"
"","4932","image-multi-choice","207","2050495","0.0-1.0-206.0","{""Q0"":""Blackburnian Warbler""}","Magnolia Warbler","Wood-Warblers","758"
"","15942","image-multi-choice","208","2067444","0.0-1.0-207.0","{""Q0"":""Townsend's Warbler""}","Blackburnian Warbler","Wood-Warblers","874"
"","4901","image-multi-choice","209","2073351","0.0-1.0-208.0","{""Q0"":""Swamp Sparrow""}","Swamp Sparrow","New World Sparrows and Allies","904"
"","9306","image-multi-choice","210","2083664","0.0-1.0-209.0","{""Q0"":""Song Sparrow""}","American Tree Sparrow","New World Sparrows and Allies","894"
"","2933","image-multi-choice","211","2087599","0.0-1.0-210.0","{""Q0"":""Ovenbird""}","Ovenbird","Wood-Warblers","860"
"","4482","image-multi-choice","212","2093086","0.0-1.0-211.0","{""Q0"":""Chipping Sparrow""}","Swamp Sparrow","New World Sparrows and Allies","904"
"","4232","image-multi-choice","213","2098324","0.0-1.0-212.0","{""Q0"":""Song Sparrow""}","Song Sparrow","New World Sparrows and Allies","902"
"","5687","image-multi-choice","214","2105033","0.0-1.0-213.0","{""Q0"":""Blackburnian Warbler""}","Blackburnian Warbler","Wood-Warblers","874"
"","6632","image-multi-choice","215","2112669","0.0-1.0-214.0","{""Q0"":""Vesper Sparrow""}","Vesper Sparrow","New World Sparrows and Allies","898"
"","4434","image-multi-choice","216","2118112","0.0-1.0-215.0","{""Q0"":""Blackburnian Warbler""}","Blackburnian Warbler","Wood-Warblers","874"
"","8070","image-multi-choice","217","2127186","0.0-1.0-216.0","{""Q0"":""Song Sparrow""}","Song Sparrow","New World Sparrows and Allies","902"
"","4598","image-multi-choice","218","2132791","0.0-1.0-217.0","{""Q0"":""Orange-crowned Warbler""}","Tennessee Warbler","Wood-Warblers","866"
"","4946","image-multi-choice","219","2138745","0.0-1.0-218.0","{""Q0"":""Black-and-white Warbler""}","Black-and-white Warbler","Wood-Warblers","864"
"","7053","image-multi-choice","220","2146807","0.0-1.0-219.0","{""Q0"":""Northern Waterthrush""}","Ovenbird","Wood-Warblers","860"
"","2991","image-multi-choice","221","2150810","0.0-1.0-220.0","{""Q0"":""White-throated Sparrow""}","White-throated Sparrow","New World Sparrows and Allies","764"
"","8261","image-multi-choice","222","2160085","0.0-1.0-221.0","{""Q0"":""American Tree Sparrow""}","Vesper Sparrow","New World Sparrows and Allies","898"
"","16811","image-multi-choice","223","2177902","0.0-1.0-222.0","{""Q0"":""Lincoln's Sparrow""}","American Tree Sparrow","New World Sparrows and Allies","894"
"","2331","image-multi-choice","224","2181240","0.0-1.0-223.0","{""Q0"":""Yellow Warbler""}","Yellow Warbler","Wood-Warblers","875"
"","2948","image-multi-choice","225","2185209","0.0-1.0-224.0","{""Q0"":""Northern Waterthrush""}","Northern Waterthrush","Wood-Warblers","862"
"","6404","image-multi-choice","226","2192617","0.0-1.0-225.0","{""Q0"":""Blackburnian Warbler""}","Blackburnian Warbler","Wood-Warblers","874"
"","5087","image-multi-choice","227","2198709","0.0-1.0-226.0","{""Q0"":""White-crowned Sparrow""}","White-throated Sparrow","New World Sparrows and Allies","764"
"","7118","image-multi-choice","228","2206830","0.0-1.0-227.0","{""Q0"":""Lark Sparrow""}","Song Sparrow","New World Sparrows and Allies","902"
"","5635","image-multi-choice","229","2213471","0.0-1.0-228.0","{""Q0"":""Northern Waterthrush""}","Ovenbird","Wood-Warblers","860"
"","4585","image-multi-choice","230","2219062","0.0-1.0-229.0","{""Q0"":""Blackburnian Warbler""}","Townsend's Warbler","Wood-Warblers","881"
"","4533","image-multi-choice","231","2224600","0.0-1.0-230.0","{""Q0"":""Orange-crowned Warbler""}","Nashville Warbler","Wood-Warblers","868"
"","8319","image-multi-choice","232","2233923","0.0-1.0-231.0","{""Q0"":""Fox Sparrow""}","Fox Sparrow","New World Sparrows and Allies","901"
"","3234","image-multi-choice","233","2238163","0.0-1.0-232.0","{""Q0"":""Ovenbird""}","Ovenbird","Wood-Warblers","860"
"","5501","image-multi-choice","234","2244668","0.0-1.0-233.0","{""Q0"":""Blackburnian Warbler""}","Magnolia Warbler","Wood-Warblers","758"
"","5901","image-multi-choice","235","2251574","0.0-1.0-234.0","{""Q0"":""Chipping Sparrow""}","American Tree Sparrow","New World Sparrows and Allies","894"
"","4756","image-multi-choice","236","2257347","0.0-1.0-235.0","{""Q0"":""Blackburnian Warbler""}","Blackburnian Warbler","Wood-Warblers","874"
"","4918","image-multi-choice","237","2263270","0.0-1.0-236.0","{""Q0"":""Chipping Sparrow""}","Chipping Sparrow","New World Sparrows and Allies","769"
"","12223","image-multi-choice","238","2276498","0.0-1.0-237.0","{""Q0"":""Chipping Sparrow""}","Fox Sparrow","New World Sparrows and Allies","901"
"","4429","image-multi-choice","239","2281935","0.0-1.0-238.0","{""Q0"":""Lark Sparrow""}","Vesper Sparrow","New World Sparrows and Allies","898"
"","3716","image-multi-choice","240","2323061","0.0-1.0-239.0","{""Q0"":""Northern Waterthrush""}","Northern Waterthrush","Wood-Warblers","862"
"","3416","image-multi-choice","241","2327482","0.0-1.0-240.0","{""Q0"":""Lark Sparrow""}","Lark Sparrow","New World Sparrows and Allies","899"
"","6320","image-multi-choice","242","2334808","0.0-1.0-241.0","{""Q0"":""Orange-crowned Warbler""}","Nashville Warbler","Wood-Warblers","868"
"","2881","image-multi-choice","243","2338693","0.0-1.0-242.0","{""Q0"":""Ovenbird""}","Ovenbird","Wood-Warblers","860"
"","2749","image-multi-choice","244","2342447","0.0-1.0-243.0","{""Q0"":""Northern Waterthrush""}","Northern Waterthrush","Wood-Warblers","862"
"","5134","image-multi-choice","245","2348586","0.0-1.0-244.0","{""Q0"":""Tennessee Warbler""}","Orange-crowned Warbler","Wood-Warblers","867"
"","5483","image-multi-choice","246","2355076","0.0-1.0-245.0","{""Q0"":""Lark Sparrow""}","Chipping Sparrow","New World Sparrows and Allies","769"
"","4532","image-multi-choice","247","2360613","0.0-1.0-246.0","{""Q0"":""Orange-crowned Warbler""}","Tennessee Warbler","Wood-Warblers","866"
"","2494","image-multi-choice","248","2364116","0.0-1.0-247.0","{""Q0"":""Yellow Warbler""}","Yellow Warbler","Wood-Warblers","875"
"","10536","image-multi-choice","249","2375662","0.0-1.0-248.0","{""Q0"":""Swamp Sparrow""}","Lincoln's Sparrow","New World Sparrows and Allies","903"
"","8969","image-multi-choice","250","2385639","0.0-1.0-249.0","{""Q0"":""Vesper Sparrow""}","Vesper Sparrow","New World Sparrows and Allies","898"
"","4498","image-multi-choice","251","2391145","0.0-1.0-250.0","{""Q0"":""Black-and-white Warbler""}","Black-and-white Warbler","Wood-Warblers","864"
"","7745","image-multi-choice","252","2399903","0.0-1.0-251.0","{""Q0"":""Song Sparrow""}","Song Sparrow","New World Sparrows and Allies","902"
"","8553","image-multi-choice","253","2409461","0.0-1.0-252.0","{""Q0"":""American Tree Sparrow""}","Chipping Sparrow","New World Sparrows and Allies","769"
"","8623","image-multi-choice","254","2419090","0.0-1.0-253.0","{""Q0"":""Magnolia Warbler""}","Magnolia Warbler","Wood-Warblers","758"
"","10855","image-multi-choice","255","2430950","0.0-1.0-254.0","{""Q0"":""American Tree Sparrow""}","Lincoln's Sparrow","New World Sparrows and Allies","903"
"","3481","image-multi-choice","256","2435439","0.0-1.0-255.0","{""Q0"":""White-throated Sparrow""}","White-throated Sparrow","New World Sparrows and Allies","764"
"","11039","image-multi-choice","257","2447483","0.0-1.0-256.0","{""Q0"":""Lincoln's Sparrow""}","Fox Sparrow","New World Sparrows and Allies","901"
"","5834","image-multi-choice","258","2454323","0.0-1.0-257.0","{""Q0"":""Northern Waterthrush""}","Black-and-white Warbler","Wood-Warblers","864"
"","8384","image-multi-choice","259","2463714","0.0-1.0-258.0","{""Q0"":""Northern Waterthrush""}","Chipping Sparrow","New World Sparrows and Allies","769"
"","3749","image-multi-choice","260","2468470","0.0-1.0-259.0","{""Q0"":""Tennessee Warbler""}","Orange-crowned Warbler","Wood-Warblers","867"
"","3066","image-multi-choice","261","2472542","0.0-1.0-260.0","{""Q0"":""Lark Sparrow""}","Lark Sparrow","New World Sparrows and Allies","899"
"","5900","image-multi-choice","262","2479446","0.0-1.0-261.0","{""Q0"":""American Tree Sparrow""}","Lincoln's Sparrow","New World Sparrows and Allies","903"
"","4536","image-multi-choice","263","2484989","0.0-1.0-262.0","{""Q0"":""Northern Waterthrush""}","Northern Waterthrush","Wood-Warblers","862"
"","6335","image-multi-choice","264","2492328","0.0-1.0-263.0","{""Q0"":""Orange-crowned Warbler""}","Nashville Warbler","Wood-Warblers","868"
"","2748","image-multi-choice","265","2496081","0.0-1.0-264.0","{""Q0"":""Lark Sparrow""}","Lark Sparrow","New World Sparrows and Allies","899"
"","5370","image-multi-choice","266","2502456","0.0-1.0-265.0","{""Q0"":""Townsend's Warbler""}","Orange-crowned Warbler","Wood-Warblers","867"
"","7570","image-multi-choice","267","2511029","0.0-1.0-266.0","{""Q0"":""Blackburnian Warbler""}","Magnolia Warbler","Wood-Warblers","758"
"","3664","image-multi-choice","268","2515700","0.0-1.0-267.0","{""Q0"":""Orange-crowned Warbler""}","Orange-crowned Warbler","Wood-Warblers","867"
"","2198","image-multi-choice","269","2518903","0.0-1.0-268.0","{""Q0"":""Yellow Warbler""}","Yellow Warbler","Wood-Warblers","875"
"","5535","image-multi-choice","270","2525443","0.0-1.0-269.0","{""Q0"":""Orange-crowned Warbler""}","Orange-crowned Warbler","Wood-Warblers","867"
"","13108","image-multi-choice","271","2539556","0.0-1.0-270.0","{""Q0"":""Lincoln's Sparrow""}","Lincoln's Sparrow","New World Sparrows and Allies","903"
"","5090","image-multi-choice","272","2545651","0.0-1.0-271.0","{""Q0"":""Fox Sparrow""}","Lark Sparrow","New World Sparrows and Allies","899"
"","8201","image-multi-choice","273","2554852","0.0-1.0-272.0","{""Q0"":""Lincoln's Sparrow""}","Lincoln's Sparrow","New World Sparrows and Allies","903"
"","5733","image-multi-choice","274","2561593","0.0-1.0-273.0","{""Q0"":""Townsend's Warbler""}","Nashville Warbler","Wood-Warblers","868"
"","2819","image-multi-choice","275","2565418","0.0-1.0-274.0","{""Q0"":""Lark Sparrow""}","Lark Sparrow","New World Sparrows and Allies","899"
"","5722","image-multi-choice","276","2572144","0.0-1.0-275.0","{""Q0"":""American Tree Sparrow""}","Chipping Sparrow","New World Sparrows and Allies","769"
"","3739","image-multi-choice","277","2576891","0.0-1.0-276.0","{""Q0"":""White-throated Sparrow""}","White-throated Sparrow","New World Sparrows and Allies","764"
"","6317","image-multi-choice","278","2584216","0.0-1.0-277.0","{""Q0"":""American Tree Sparrow""}","Song Sparrow","New World Sparrows and Allies","902"
"","3231","image-multi-choice","279","2588454","0.0-1.0-278.0","{""Q0"":""Ovenbird""}","Ovenbird","Wood-Warblers","860"
"","10056","image-multi-choice","280","2599515","0.0-1.0-279.0","{""Q0"":""White-crowned Sparrow""}","Lark Sparrow","New World Sparrows and Allies","899"
"","4534","image-multi-choice","281","2605053","0.0-1.0-280.0","{""Q0"":""Chipping Sparrow""}","Chipping Sparrow","New World Sparrows and Allies","769"
"","7420","image-multi-choice","282","2613479","0.0-1.0-281.0","{""Q0"":""Chipping Sparrow""}","Lark Sparrow","New World Sparrows and Allies","899"
"","4065","image-multi-choice","283","2618549","0.0-1.0-282.0","{""Q0"":""Song Sparrow""}","Song Sparrow","New World Sparrows and Allies","902"
"","2710","image-multi-choice","284","2622270","0.0-1.0-283.0","{""Q0"":""White-throated Sparrow""}","White-throated Sparrow","New World Sparrows and Allies","764"
"","5919","image-multi-choice","285","2629195","0.0-1.0-284.0","{""Q0"":""Magnolia Warbler""}","Magnolia Warbler","Wood-Warblers","758"
"","6699","image-multi-choice","286","2636902","0.0-1.0-285.0","{""Q0"":""Tennessee Warbler""}","Orange-crowned Warbler","Wood-Warblers","867"
"","3149","image-multi-choice","287","2641056","0.0-1.0-286.0","{""Q0"":""Ovenbird""}","Lincoln's Sparrow","New World Sparrows and Allies","903"
"","6586","image-multi-choice","288","2648647","0.0-1.0-287.0","{""Q0"":""Lark Sparrow""}","Lark Sparrow","New World Sparrows and Allies","899"
"","6735","image-multi-choice","289","2656387","0.0-1.0-288.0","{""Q0"":""Magnolia Warbler""}","Townsend's Warbler","Wood-Warblers","881"
"","3832","image-multi-choice","290","2661241","0.0-1.0-289.0","{""Q0"":""Black-and-white Warbler""}","Black-and-white Warbler","Wood-Warblers","864"
"","5056","image-multi-choice","291","2667302","0.0-1.0-290.0","{""Q0"":""Townsend's Warbler""}","Tennessee Warbler","Wood-Warblers","866"
"","7733","image-multi-choice","292","2676038","0.0-1.0-291.0","{""Q0"":""Vesper Sparrow""}","American Tree Sparrow","New World Sparrows and Allies","894"
"","6169","image-multi-choice","293","2683214","0.0-1.0-292.0","{""Q0"":""Lincoln's Sparrow""}","Chipping Sparrow","New World Sparrows and Allies","769"
"","3145","image-multi-choice","294","2687367","0.0-1.0-293.0","{""Q0"":""Lark Sparrow""}","Lark Sparrow","New World Sparrows and Allies","899"
"","6149","image-multi-choice","295","2694522","0.0-1.0-294.0","{""Q0"":""Magnolia Warbler""}","Magnolia Warbler","Wood-Warblers","758"
"","2548","image-multi-choice","296","2698078","0.0-1.0-295.0","{""Q0"":""Yellow Warbler""}","Yellow Warbler","Wood-Warblers","875"
"","5209","image-multi-choice","297","2704301","0.0-1.0-296.0","{""Q0"":""White-crowned Sparrow""}","White-crowned Sparrow","New World Sparrows and Allies","766"
"","6651","image-multi-choice","298","2711958","0.0-1.0-297.0","{""Q0"":""Swamp Sparrow""}","Swamp Sparrow","New World Sparrows and Allies","904"
"","4324","image-multi-choice","299","2717295","0.0-1.0-298.0","{""Q0"":""Townsend's Warbler""}","Orange-crowned Warbler","Wood-Warblers","867"
"","7317","image-multi-choice","300","2760825","0.0-1.0-299.0","{""Q0"":""American Tree Sparrow""}","Vesper Sparrow","New World Sparrows and Allies","898"
"[{""page_index"":0,""viewing_time"":3062}]","3062","instructions","301","2764892","0.0-2.0","","","",""
