"view_history","rt","trial_type","trial_index","time_elapsed","internal_node_id","responses","bird","family","class"
"[{""page_index"":0,""viewing_time"":26965}]","26966","instructions","0","26967","0.0-0.0","","","",""
"","53240","image-multi-choice","1","81236","0.0-1.0-0.0","{""Q0"":""Blackburnian Warbler""}","Townsend's Warbler","Wood-Warblers","881"
"","4967","image-multi-choice","2","87222","0.0-1.0-1.0","{""Q0"":""Lark Sparrow""}","Lark Sparrow","New World Sparrows and Allies","899"
"","6747","image-multi-choice","3","94989","0.0-1.0-2.0","{""Q0"":""White-crowned Sparrow""}","White-crowned Sparrow","New World Sparrows and Allies","766"
"","5824","image-multi-choice","4","101832","0.0-1.0-3.0","{""Q0"":""Lark Sparrow""}","Lark Sparrow","New World Sparrows and Allies","899"
"","3558","image-multi-choice","5","106409","0.0-1.0-4.0","{""Q0"":""White-throated Sparrow""}","White-throated Sparrow","New World Sparrows and Allies","764"
"","4698","image-multi-choice","6","112122","0.0-1.0-5.0","{""Q0"":""White-crowned Sparrow""}","White-crowned Sparrow","New World Sparrows and Allies","766"
"","11303","image-multi-choice","7","124450","0.0-1.0-6.0","{""Q0"":""Orange-crowned Warbler""}","Tennessee Warbler","Wood-Warblers","866"
"","3990","image-multi-choice","8","129459","0.0-1.0-7.0","{""Q0"":""White-throated Sparrow""}","White-crowned Sparrow","New World Sparrows and Allies","766"
"","5385","image-multi-choice","9","135857","0.0-1.0-8.0","{""Q0"":""Nashville Warbler""}","Orange-crowned Warbler","Wood-Warblers","867"
"","3891","image-multi-choice","10","140763","0.0-1.0-9.0","{""Q0"":""White-throated Sparrow""}","Swamp Sparrow","New World Sparrows and Allies","904"
"","5827","image-multi-choice","11","147606","0.0-1.0-10.0","{""Q0"":""Orange-crowned Warbler""}","Orange-crowned Warbler","Wood-Warblers","867"
"","6511","image-multi-choice","12","155134","0.0-1.0-11.0","{""Q0"":""White-throated Sparrow""}","White-crowned Sparrow","New World Sparrows and Allies","766"
"","9556","image-multi-choice","13","165707","0.0-1.0-12.0","{""Q0"":""Blackburnian Warbler""}","Townsend's Warbler","Wood-Warblers","881"
"","14754","image-multi-choice","14","181478","0.0-1.0-13.0","{""Q0"":""Vesper Sparrow""}","Lincoln's Sparrow","New World Sparrows and Allies","903"
"","3826","image-multi-choice","15","186319","0.0-1.0-14.0","{""Q0"":""Ovenbird""}","Ovenbird","Wood-Warblers","860"
"","7016","image-multi-choice","16","194351","0.0-1.0-15.0","{""Q0"":""Nashville Warbler""}","Tennessee Warbler","Wood-Warblers","866"
"","5897","image-multi-choice","17","201262","0.0-1.0-16.0","{""Q0"":""Song Sparrow""}","Vesper Sparrow","New World Sparrows and Allies","898"
"","15889","image-multi-choice","18","218165","0.0-1.0-17.0","{""Q0"":""Townsend's Warbler""}","Tennessee Warbler","Wood-Warblers","866"
"","6204","image-multi-choice","19","225380","0.0-1.0-18.0","{""Q0"":""Swamp Sparrow""}","Vesper Sparrow","New World Sparrows and Allies","898"
"","4441","image-multi-choice","20","230833","0.0-1.0-19.0","{""Q0"":""Song Sparrow""}","Song Sparrow","New World Sparrows and Allies","902"
"","4845","image-multi-choice","21","236696","0.0-1.0-20.0","{""Q0"":""Black-and-white Warbler""}","Magnolia Warbler","Wood-Warblers","758"
"","5852","image-multi-choice","22","243560","0.0-1.0-21.0","{""Q0"":""Yellow Warbler""}","Orange-crowned Warbler","Wood-Warblers","867"
"","5282","image-multi-choice","23","249860","0.0-1.0-22.0","{""Q0"":""Black-and-white Warbler""}","Townsend's Warbler","Wood-Warblers","881"
"","4586","image-multi-choice","24","255461","0.0-1.0-23.0","{""Q0"":""Ovenbird""}","Ovenbird","Wood-Warblers","860"
"","4345","image-multi-choice","25","260820","0.0-1.0-24.0","{""Q0"":""Song Sparrow""}","Lincoln's Sparrow","New World Sparrows and Allies","903"
"","3153","image-multi-choice","26","264985","0.0-1.0-25.0","{""Q0"":""White-throated Sparrow""}","White-throated Sparrow","New World Sparrows and Allies","764"
"","3853","image-multi-choice","27","269851","0.0-1.0-26.0","{""Q0"":""Ovenbird""}","Ovenbird","Wood-Warblers","860"
"","5414","image-multi-choice","28","276278","0.0-1.0-27.0","{""Q0"":""White-crowned Sparrow""}","Chipping Sparrow","New World Sparrows and Allies","769"
"","5673","image-multi-choice","29","282965","0.0-1.0-28.0","{""Q0"":""Fox Sparrow""}","Fox Sparrow","New World Sparrows and Allies","901"
"","9420","image-multi-choice","30","293400","0.0-1.0-29.0","{""Q0"":""Magnolia Warbler""}","Magnolia Warbler","Wood-Warblers","758"
"","3775","image-multi-choice","31","298190","0.0-1.0-30.0","{""Q0"":""Ovenbird""}","Northern Waterthrush","Wood-Warblers","862"
"","7097","image-multi-choice","32","306305","0.0-1.0-31.0","{""Q0"":""Tennessee Warbler""}","Tennessee Warbler","Wood-Warblers","866"
"","3522","image-multi-choice","33","310844","0.0-1.0-32.0","{""Q0"":""Black-and-white Warbler""}","Magnolia Warbler","Wood-Warblers","758"
"","4184","image-multi-choice","34","316042","0.0-1.0-33.0","{""Q0"":""Song Sparrow""}","Song Sparrow","New World Sparrows and Allies","902"
"","4092","image-multi-choice","35","321150","0.0-1.0-34.0","{""Q0"":""Lark Sparrow""}","Lark Sparrow","New World Sparrows and Allies","899"
"","6282","image-multi-choice","36","328450","0.0-1.0-35.0","{""Q0"":""Orange-crowned Warbler""}","Nashville Warbler","Wood-Warblers","868"
"","4015","image-multi-choice","37","333477","0.0-1.0-36.0","{""Q0"":""Ovenbird""}","Northern Waterthrush","Wood-Warblers","862"
"","5272","image-multi-choice","38","339764","0.0-1.0-37.0","{""Q0"":""Chipping Sparrow""}","Chipping Sparrow","New World Sparrows and Allies","769"
"","5530","image-multi-choice","39","346308","0.0-1.0-38.0","{""Q0"":""Yellow Warbler""}","Yellow Warbler","Wood-Warblers","875"
"","3908","image-multi-choice","40","351229","0.0-1.0-39.0","{""Q0"":""Ovenbird""}","Ovenbird","Wood-Warblers","860"
"","8615","image-multi-choice","41","360859","0.0-1.0-40.0","{""Q0"":""Magnolia Warbler""}","Black-and-white Warbler","Wood-Warblers","864"
"","6636","image-multi-choice","42","368515","0.0-1.0-41.0","{""Q0"":""Orange-crowned Warbler""}","Tennessee Warbler","Wood-Warblers","866"
"","8374","image-multi-choice","43","377901","0.0-1.0-42.0","{""Q0"":""Song Sparrow""}","Song Sparrow","New World Sparrows and Allies","902"
"","4250","image-multi-choice","44","383169","0.0-1.0-43.0","{""Q0"":""Black-and-white Warbler""}","Blackburnian Warbler","Wood-Warblers","874"
"","8056","image-multi-choice","45","392241","0.0-1.0-44.0","{""Q0"":""Northern Waterthrush""}","Black-and-white Warbler","Wood-Warblers","864"
"","5778","image-multi-choice","46","399032","0.0-1.0-45.0","{""Q0"":""Blackburnian Warbler""}","Magnolia Warbler","Wood-Warblers","758"
"","5288","image-multi-choice","47","405337","0.0-1.0-46.0","{""Q0"":""Ovenbird""}","Ovenbird","Wood-Warblers","860"
"","4119","image-multi-choice","48","410468","0.0-1.0-47.0","{""Q0"":""Song Sparrow""}","Vesper Sparrow","New World Sparrows and Allies","898"
"","3248","image-multi-choice","49","414733","0.0-1.0-48.0","{""Q0"":""White-throated Sparrow""}","Lark Sparrow","New World Sparrows and Allies","899"
"","3951","image-multi-choice","50","419698","0.0-1.0-49.0","{""Q0"":""Ovenbird""}","Black-and-white Warbler","Wood-Warblers","864"
"","5108","image-multi-choice","51","425821","0.0-1.0-50.0","{""Q0"":""Blackburnian Warbler""}","Townsend's Warbler","Wood-Warblers","881"
"","4217","image-multi-choice","52","431052","0.0-1.0-51.0","{""Q0"":""Orange-crowned Warbler""}","Nashville Warbler","Wood-Warblers","868"
"","6921","image-multi-choice","53","438987","0.0-1.0-52.0","{""Q0"":""White-throated Sparrow""}","Chipping Sparrow","New World Sparrows and Allies","769"
"","6722","image-multi-choice","54","446724","0.0-1.0-53.0","{""Q0"":""Song Sparrow""}","Swamp Sparrow","New World Sparrows and Allies","904"
"","3611","image-multi-choice","55","451347","0.0-1.0-54.0","{""Q0"":""White-crowned Sparrow""}","White-crowned Sparrow","New World Sparrows and Allies","766"
"","8157","image-multi-choice","56","460518","0.0-1.0-55.0","{""Q0"":""Black-and-white Warbler""}","Black-and-white Warbler","Wood-Warblers","864"
"","4366","image-multi-choice","57","465897","0.0-1.0-56.0","{""Q0"":""Orange-crowned Warbler""}","Tennessee Warbler","Wood-Warblers","866"
"","5654","image-multi-choice","58","472565","0.0-1.0-57.0","{""Q0"":""Magnolia Warbler""}","Townsend's Warbler","Wood-Warblers","881"
"","4365","image-multi-choice","59","477941","0.0-1.0-58.0","{""Q0"":""Orange-crowned Warbler""}","Nashville Warbler","Wood-Warblers","868"
"","5998","image-multi-choice","60","501657","0.0-1.0-59.0","{""Q0"":""Vesper Sparrow""}","Lincoln's Sparrow","New World Sparrows and Allies","903"
"","11628","image-multi-choice","61","514302","0.0-1.0-60.0","{""Q0"":""Vesper Sparrow""}","Song Sparrow","New World Sparrows and Allies","902"
"","2977","image-multi-choice","62","518295","0.0-1.0-61.0","{""Q0"":""Yellow Warbler""}","Yellow Warbler","Wood-Warblers","875"
"","3483","image-multi-choice","63","522793","0.0-1.0-62.0","{""Q0"":""White-throated Sparrow""}","White-throated Sparrow","New World Sparrows and Allies","764"
"","5338","image-multi-choice","64","529149","0.0-1.0-63.0","{""Q0"":""Orange-crowned Warbler""}","Tennessee Warbler","Wood-Warblers","866"
"","8698","image-multi-choice","65","538860","0.0-1.0-64.0","{""Q0"":""Chipping Sparrow""}","Lincoln's Sparrow","New World Sparrows and Allies","903"
"","4721","image-multi-choice","66","544601","0.0-1.0-65.0","{""Q0"":""Magnolia Warbler""}","Blackburnian Warbler","Wood-Warblers","874"
"","5673","image-multi-choice","67","551287","0.0-1.0-66.0","{""Q0"":""Northern Waterthrush""}","Northern Waterthrush","Wood-Warblers","862"
"","2798","image-multi-choice","68","555096","0.0-1.0-67.0","{""Q0"":""Yellow Warbler""}","Yellow Warbler","Wood-Warblers","875"
"","8291","image-multi-choice","69","564398","0.0-1.0-68.0","{""Q0"":""Vesper Sparrow""}","Lincoln's Sparrow","New World Sparrows and Allies","903"
"","4789","image-multi-choice","70","570202","0.0-1.0-69.0","{""Q0"":""American Tree Sparrow""}","American Tree Sparrow","New World Sparrows and Allies","894"
"","4662","image-multi-choice","71","575879","0.0-1.0-70.0","{""Q0"":""Tennessee Warbler""}","Orange-crowned Warbler","Wood-Warblers","867"
"","7333","image-multi-choice","72","584224","0.0-1.0-71.0","{""Q0"":""Vesper Sparrow""}","Lincoln's Sparrow","New World Sparrows and Allies","903"
"","4066","image-multi-choice","73","589303","0.0-1.0-72.0","{""Q0"":""Magnolia Warbler""}","Magnolia Warbler","Wood-Warblers","758"
"","4551","image-multi-choice","74","594869","0.0-1.0-73.0","{""Q0"":""Lincoln's Sparrow""}","Lincoln's Sparrow","New World Sparrows and Allies","903"
"","3045","image-multi-choice","75","598927","0.0-1.0-74.0","{""Q0"":""Yellow Warbler""}","Yellow Warbler","Wood-Warblers","875"
"","2773","image-multi-choice","76","602714","0.0-1.0-75.0","{""Q0"":""White-crowned Sparrow""}","White-crowned Sparrow","New World Sparrows and Allies","766"
"","4200","image-multi-choice","77","607927","0.0-1.0-76.0","{""Q0"":""Orange-crowned Warbler""}","Nashville Warbler","Wood-Warblers","868"
"","6003","image-multi-choice","78","614943","0.0-1.0-77.0","{""Q0"":""Chipping Sparrow""}","American Tree Sparrow","New World Sparrows and Allies","894"
"","4011","image-multi-choice","79","619970","0.0-1.0-78.0","{""Q0"":""Black-and-white Warbler""}","Townsend's Warbler","Wood-Warblers","881"
"","5464","image-multi-choice","80","626447","0.0-1.0-79.0","{""Q0"":""Chipping Sparrow""}","Chipping Sparrow","New World Sparrows and Allies","769"
"","2896","image-multi-choice","81","630356","0.0-1.0-80.0","{""Q0"":""White-throated Sparrow""}","White-throated Sparrow","New World Sparrows and Allies","764"
"","3890","image-multi-choice","82","635259","0.0-1.0-81.0","{""Q0"":""Ovenbird""}","Ovenbird","Wood-Warblers","860"
"","7296","image-multi-choice","83","643570","0.0-1.0-82.0","{""Q0"":""White-crowned Sparrow""}","White-crowned Sparrow","New World Sparrows and Allies","766"
"","6019","image-multi-choice","84","650600","0.0-1.0-83.0","{""Q0"":""Black-and-white Warbler""}","Magnolia Warbler","Wood-Warblers","758"
"","2906","image-multi-choice","85","654520","0.0-1.0-84.0","{""Q0"":""Yellow Warbler""}","Yellow Warbler","Wood-Warblers","875"
"","3587","image-multi-choice","86","659126","0.0-1.0-85.0","{""Q0"":""Lark Sparrow""}","Lark Sparrow","New World Sparrows and Allies","899"
"","4824","image-multi-choice","87","664966","0.0-1.0-86.0","{""Q0"":""Song Sparrow""}","Lincoln's Sparrow","New World Sparrows and Allies","903"
"","9097","image-multi-choice","88","675079","0.0-1.0-87.0","{""Q0"":""Magnolia Warbler""}","Black-and-white Warbler","Wood-Warblers","864"
"","4621","image-multi-choice","89","680714","0.0-1.0-88.0","{""Q0"":""White-crowned Sparrow""}","White-crowned Sparrow","New World Sparrows and Allies","766"
"","5797","image-multi-choice","90","687524","0.0-1.0-89.0","{""Q0"":""Black-and-white Warbler""}","Townsend's Warbler","Wood-Warblers","881"
"","2862","image-multi-choice","91","691400","0.0-1.0-90.0","{""Q0"":""White-throated Sparrow""}","White-throated Sparrow","New World Sparrows and Allies","764"
"","3244","image-multi-choice","92","695661","0.0-1.0-91.0","{""Q0"":""Black-and-white Warbler""}","Magnolia Warbler","Wood-Warblers","758"
"","5078","image-multi-choice","93","701751","0.0-1.0-92.0","{""Q0"":""Vesper Sparrow""}","Lincoln's Sparrow","New World Sparrows and Allies","903"
"","10385","image-multi-choice","94","713149","0.0-1.0-93.0","{""Q0"":""Blackburnian Warbler""}","Blackburnian Warbler","Wood-Warblers","874"
"","3379","image-multi-choice","95","717544","0.0-1.0-94.0","{""Q0"":""Lark Sparrow""}","Vesper Sparrow","New World Sparrows and Allies","898"
"","5524","image-multi-choice","96","724080","0.0-1.0-95.0","{""Q0"":""Lark Sparrow""}","Lark Sparrow","New World Sparrows and Allies","899"
"","5107","image-multi-choice","97","730204","0.0-1.0-96.0","{""Q0"":""White-throated Sparrow""}","Swamp Sparrow","New World Sparrows and Allies","904"
"","7210","image-multi-choice","98","738426","0.0-1.0-97.0","{""Q0"":""Northern Waterthrush""}","Northern Waterthrush","Wood-Warblers","862"
"","3605","image-multi-choice","99","743047","0.0-1.0-98.0","{""Q0"":""Ovenbird""}","Ovenbird","Wood-Warblers","860"
"","3340","image-multi-choice","100","747402","0.0-1.0-99.0","{""Q0"":""White-throated Sparrow""}","White-throated Sparrow","New World Sparrows and Allies","764"
"","3457","image-multi-choice","101","751871","0.0-1.0-100.0","{""Q0"":""Orange-crowned Warbler""}","Nashville Warbler","Wood-Warblers","868"
"","3668","image-multi-choice","102","756557","0.0-1.0-101.0","{""Q0"":""Black-and-white Warbler""}","Magnolia Warbler","Wood-Warblers","758"
"","3381","image-multi-choice","103","760953","0.0-1.0-102.0","{""Q0"":""White-throated Sparrow""}","Swamp Sparrow","New World Sparrows and Allies","904"
"","3039","image-multi-choice","104","765007","0.0-1.0-103.0","{""Q0"":""Black-and-white Warbler""}","Blackburnian Warbler","Wood-Warblers","874"
"","4390","image-multi-choice","105","770410","0.0-1.0-104.0","{""Q0"":""Northern Waterthrush""}","Northern Waterthrush","Wood-Warblers","862"
"","4606","image-multi-choice","106","776028","0.0-1.0-105.0","{""Q0"":""Townsend's Warbler""}","Swamp Sparrow","New World Sparrows and Allies","904"
"","6695","image-multi-choice","107","783740","0.0-1.0-106.0","{""Q0"":""Vesper Sparrow""}","Song Sparrow","New World Sparrows and Allies","902"
"","8028","image-multi-choice","108","792780","0.0-1.0-107.0","{""Q0"":""Magnolia Warbler""}","Black-and-white Warbler","Wood-Warblers","864"
"","3856","image-multi-choice","109","797651","0.0-1.0-108.0","{""Q0"":""Black-and-white Warbler""}","Blackburnian Warbler","Wood-Warblers","874"
"","4372","image-multi-choice","110","803042","0.0-1.0-109.0","{""Q0"":""Nashville Warbler""}","Nashville Warbler","Wood-Warblers","868"
"","3131","image-multi-choice","111","807188","0.0-1.0-110.0","{""Q0"":""Lark Sparrow""}","Chipping Sparrow","New World Sparrows and Allies","769"
"","3278","image-multi-choice","112","811480","0.0-1.0-111.0","{""Q0"":""White-throated Sparrow""}","American Tree Sparrow","New World Sparrows and Allies","894"
"","6541","image-multi-choice","113","819032","0.0-1.0-112.0","{""Q0"":""Ovenbird""}","Northern Waterthrush","Wood-Warblers","862"
"","3712","image-multi-choice","114","823756","0.0-1.0-113.0","{""Q0"":""Yellow Warbler""}","Yellow Warbler","Wood-Warblers","875"
"","4347","image-multi-choice","115","829116","0.0-1.0-114.0","{""Q0"":""Orange-crowned Warbler""}","Tennessee Warbler","Wood-Warblers","866"
"","5279","image-multi-choice","116","835405","0.0-1.0-115.0","{""Q0"":""Lincoln's Sparrow""}","Lincoln's Sparrow","New World Sparrows and Allies","903"
"","5544","image-multi-choice","117","841966","0.0-1.0-116.0","{""Q0"":""Black-and-white Warbler""}","Black-and-white Warbler","Wood-Warblers","864"
"","6456","image-multi-choice","118","849435","0.0-1.0-117.0","{""Q0"":""Chipping Sparrow""}","Song Sparrow","New World Sparrows and Allies","902"
"","5418","image-multi-choice","119","855865","0.0-1.0-118.0","{""Q0"":""Song Sparrow""}","Lincoln's Sparrow","New World Sparrows and Allies","903"
"","3264","image-multi-choice","120","871685","0.0-1.0-119.0","{""Q0"":""Blackburnian Warbler""}","Blackburnian Warbler","Wood-Warblers","874"
"","8561","image-multi-choice","121","881262","0.0-1.0-120.0","{""Q0"":""Nashville Warbler""}","Nashville Warbler","Wood-Warblers","868"
"","4600","image-multi-choice","122","886874","0.0-1.0-121.0","{""Q0"":""Song Sparrow""}","Vesper Sparrow","New World Sparrows and Allies","898"
"","4333","image-multi-choice","123","892221","0.0-1.0-122.0","{""Q0"":""Black-and-white Warbler""}","Townsend's Warbler","Wood-Warblers","881"
"","6418","image-multi-choice","124","899656","0.0-1.0-123.0","{""Q0"":""Lincoln's Sparrow""}","Song Sparrow","New World Sparrows and Allies","902"
"","3000","image-multi-choice","125","903669","0.0-1.0-124.0","{""Q0"":""White-throated Sparrow""}","White-throated Sparrow","New World Sparrows and Allies","764"
"","4505","image-multi-choice","126","909184","0.0-1.0-125.0","{""Q0"":""Orange-crowned Warbler""}","Nashville Warbler","Wood-Warblers","868"
"","4662","image-multi-choice","127","914857","0.0-1.0-126.0","{""Q0"":""Fox Sparrow""}","Fox Sparrow","New World Sparrows and Allies","901"
"","7556","image-multi-choice","128","923426","0.0-1.0-127.0","{""Q0"":""Blackburnian Warbler""}","Magnolia Warbler","Wood-Warblers","758"
"","4569","image-multi-choice","129","929011","0.0-1.0-128.0","{""Q0"":""Nashville Warbler""}","Nashville Warbler","Wood-Warblers","868"
"","2924","image-multi-choice","130","932945","0.0-1.0-129.0","{""Q0"":""Lark Sparrow""}","Swamp Sparrow","New World Sparrows and Allies","904"
"","3230","image-multi-choice","131","937189","0.0-1.0-130.0","{""Q0"":""White-throated Sparrow""}","White-throated Sparrow","New World Sparrows and Allies","764"
"","5120","image-multi-choice","132","943325","0.0-1.0-131.0","{""Q0"":""White-throated Sparrow""}","Song Sparrow","New World Sparrows and Allies","902"
"","3429","image-multi-choice","133","947763","0.0-1.0-132.0","{""Q0"":""Yellow Warbler""}","Yellow Warbler","Wood-Warblers","875"
"","8435","image-multi-choice","134","957213","0.0-1.0-133.0","{""Q0"":""Ovenbird""}","Townsend's Warbler","Wood-Warblers","881"
"","4035","image-multi-choice","135","962261","0.0-1.0-134.0","{""Q0"":""Fox Sparrow""}","Fox Sparrow","New World Sparrows and Allies","901"
"","3276","image-multi-choice","136","966549","0.0-1.0-135.0","{""Q0"":""White-throated Sparrow""}","White-crowned Sparrow","New World Sparrows and Allies","766"
"","4360","image-multi-choice","137","971923","0.0-1.0-136.0","{""Q0"":""Magnolia Warbler""}","Magnolia Warbler","Wood-Warblers","758"
"","4867","image-multi-choice","138","977805","0.0-1.0-137.0","{""Q0"":""Black-and-white Warbler""}","Blackburnian Warbler","Wood-Warblers","874"
"","6006","image-multi-choice","139","984823","0.0-1.0-138.0","{""Q0"":""Magnolia Warbler""}","Magnolia Warbler","Wood-Warblers","758"
"","3984","image-multi-choice","140","989817","0.0-1.0-139.0","{""Q0"":""White-throated Sparrow""}","Chipping Sparrow","New World Sparrows and Allies","769"
"","4446","image-multi-choice","141","995276","0.0-1.0-140.0","{""Q0"":""Chipping Sparrow""}","American Tree Sparrow","New World Sparrows and Allies","894"
"","2121","image-multi-choice","142","998410","0.0-1.0-141.0","{""Q0"":""Yellow Warbler""}","Orange-crowned Warbler","Wood-Warblers","867"
"","3275","image-multi-choice","143","1002700","0.0-1.0-142.0","{""Q0"":""Fox Sparrow""}","Fox Sparrow","New World Sparrows and Allies","901"
"","1924","image-multi-choice","144","1005640","0.0-1.0-143.0","{""Q0"":""Yellow Warbler""}","Yellow Warbler","Wood-Warblers","875"
"","4491","image-multi-choice","145","1011146","0.0-1.0-144.0","{""Q0"":""American Tree Sparrow""}","American Tree Sparrow","New World Sparrows and Allies","894"
"","5165","image-multi-choice","146","1017323","0.0-1.0-145.0","{""Q0"":""Lark Sparrow""}","Swamp Sparrow","New World Sparrows and Allies","904"
"","2680","image-multi-choice","147","1021016","0.0-1.0-146.0","{""Q0"":""White-throated Sparrow""}","Lark Sparrow","New World Sparrows and Allies","899"
"","5279","image-multi-choice","148","1027309","0.0-1.0-147.0","{""Q0"":""Lincoln's Sparrow""}","Vesper Sparrow","New World Sparrows and Allies","898"
"","3570","image-multi-choice","149","1031897","0.0-1.0-148.0","{""Q0"":""Fox Sparrow""}","Fox Sparrow","New World Sparrows and Allies","901"
"","2443","image-multi-choice","150","1035354","0.0-1.0-149.0","{""Q0"":""White-throated Sparrow""}","Song Sparrow","New World Sparrows and Allies","902"
"","10368","image-multi-choice","151","1046735","0.0-1.0-150.0","{""Q0"":""Tennessee Warbler""}","Blackburnian Warbler","Wood-Warblers","874"
"","2332","image-multi-choice","152","1050080","0.0-1.0-151.0","{""Q0"":""Yellow Warbler""}","Orange-crowned Warbler","Wood-Warblers","867"
"","3419","image-multi-choice","153","1054513","0.0-1.0-152.0","{""Q0"":""Fox Sparrow""}","Fox Sparrow","New World Sparrows and Allies","901"
"","3966","image-multi-choice","154","1059495","0.0-1.0-153.0","{""Q0"":""Orange-crowned Warbler""}","Orange-crowned Warbler","Wood-Warblers","867"
"","4551","image-multi-choice","155","1065062","0.0-1.0-154.0","{""Q0"":""Black-and-white Warbler""}","Townsend's Warbler","Wood-Warblers","881"
"","3916","image-multi-choice","156","1069993","0.0-1.0-155.0","{""Q0"":""Ovenbird""}","Ovenbird","Wood-Warblers","860"
"","4951","image-multi-choice","157","1075958","0.0-1.0-156.0","{""Q0"":""Orange-crowned Warbler""}","Nashville Warbler","Wood-Warblers","868"
"","7264","image-multi-choice","158","1084237","0.0-1.0-157.0","{""Q0"":""White-crowned Sparrow""}","Song Sparrow","New World Sparrows and Allies","902"
"","2453","image-multi-choice","159","1087702","0.0-1.0-158.0","{""Q0"":""Yellow Warbler""}","Yellow Warbler","Wood-Warblers","875"
"","2996","image-multi-choice","160","1091711","0.0-1.0-159.0","{""Q0"":""Fox Sparrow""}","Fox Sparrow","New World Sparrows and Allies","901"
"","7516","image-multi-choice","161","1100240","0.0-1.0-160.0","{""Q0"":""Black-and-white Warbler""}","Black-and-white Warbler","Wood-Warblers","864"
"","5710","image-multi-choice","162","1107007","0.0-1.0-161.0","{""Q0"":""Orange-crowned Warbler""}","Orange-crowned Warbler","Wood-Warblers","867"
"","6460","image-multi-choice","163","1114480","0.0-1.0-162.0","{""Q0"":""American Tree Sparrow""}","American Tree Sparrow","New World Sparrows and Allies","894"
"","7224","image-multi-choice","164","1122717","0.0-1.0-163.0","{""Q0"":""Tennessee Warbler""}","Townsend's Warbler","Wood-Warblers","881"
"","4330","image-multi-choice","165","1128063","0.0-1.0-164.0","{""Q0"":""Swamp Sparrow""}","Song Sparrow","New World Sparrows and Allies","902"
"","3377","image-multi-choice","166","1132455","0.0-1.0-165.0","{""Q0"":""Orange-crowned Warbler""}","Nashville Warbler","Wood-Warblers","868"
"","3185","image-multi-choice","167","1136654","0.0-1.0-166.0","{""Q0"":""Orange-crowned Warbler""}","Tennessee Warbler","Wood-Warblers","866"
"","6825","image-multi-choice","168","1144493","0.0-1.0-167.0","{""Q0"":""White-crowned Sparrow""}","Chipping Sparrow","New World Sparrows and Allies","769"
"","3067","image-multi-choice","169","1148573","0.0-1.0-168.0","{""Q0"":""Ovenbird""}","Ovenbird","Wood-Warblers","860"
"","2506","image-multi-choice","170","1152096","0.0-1.0-169.0","{""Q0"":""White-throated Sparrow""}","White-throated Sparrow","New World Sparrows and Allies","764"
"","3158","image-multi-choice","171","1156265","0.0-1.0-170.0","{""Q0"":""Fox Sparrow""}","Fox Sparrow","New World Sparrows and Allies","901"
"","3446","image-multi-choice","172","1160727","0.0-1.0-171.0","{""Q0"":""Black-and-white Warbler""}","Blackburnian Warbler","Wood-Warblers","874"
"","3586","image-multi-choice","173","1165329","0.0-1.0-172.0","{""Q0"":""American Tree Sparrow""}","American Tree Sparrow","New World Sparrows and Allies","894"
"","6530","image-multi-choice","174","1172871","0.0-1.0-173.0","{""Q0"":""White-throated Sparrow""}","Swamp Sparrow","New World Sparrows and Allies","904"
"","5673","image-multi-choice","175","1179561","0.0-1.0-174.0","{""Q0"":""Tennessee Warbler""}","Townsend's Warbler","Wood-Warblers","881"
"","4519","image-multi-choice","176","1185093","0.0-1.0-175.0","{""Q0"":""Townsend's Warbler""}","Tennessee Warbler","Wood-Warblers","866"
"","8190","image-multi-choice","177","1194300","0.0-1.0-176.0","{""Q0"":""Northern Waterthrush""}","Northern Waterthrush","Wood-Warblers","862"
"","3170","image-multi-choice","178","1198485","0.0-1.0-177.0","{""Q0"":""White-throated Sparrow""}","Swamp Sparrow","New World Sparrows and Allies","904"
"","3621","image-multi-choice","179","1203120","0.0-1.0-178.0","{""Q0"":""Fox Sparrow""}","Fox Sparrow","New World Sparrows and Allies","901"
"","4613","image-multi-choice","180","1216510","0.0-1.0-179.0","{""Q0"":""American Tree Sparrow""}","American Tree Sparrow","New World Sparrows and Allies","894"
"","2753","image-multi-choice","181","1220273","0.0-1.0-180.0","{""Q0"":""Fox Sparrow""}","Fox Sparrow","New World Sparrows and Allies","901"
"","4327","image-multi-choice","182","1225615","0.0-1.0-181.0","{""Q0"":""Lark Sparrow""}","Vesper Sparrow","New World Sparrows and Allies","898"
"","3898","image-multi-choice","183","1230530","0.0-1.0-182.0","{""Q0"":""White-throated Sparrow""}","Song Sparrow","New World Sparrows and Allies","902"
"","4913","image-multi-choice","184","1236459","0.0-1.0-183.0","{""Q0"":""Black-and-white Warbler""}","Blackburnian Warbler","Wood-Warblers","874"
"","3658","image-multi-choice","185","1241130","0.0-1.0-184.0","{""Q0"":""White-crowned Sparrow""}","White-crowned Sparrow","New World Sparrows and Allies","766"
"","5999","image-multi-choice","186","1248144","0.0-1.0-185.0","{""Q0"":""American Tree Sparrow""}","American Tree Sparrow","New World Sparrows and Allies","894"
"","4149","image-multi-choice","187","1253308","0.0-1.0-186.0","{""Q0"":""Black-and-white Warbler""}","Black-and-white Warbler","Wood-Warblers","864"
"","3569","image-multi-choice","188","1257891","0.0-1.0-187.0","{""Q0"":""Lark Sparrow""}","Lark Sparrow","New World Sparrows and Allies","899"
"","3522","image-multi-choice","189","1262424","0.0-1.0-188.0","{""Q0"":""Orange-crowned Warbler""}","Nashville Warbler","Wood-Warblers","868"
"","4173","image-multi-choice","190","1267611","0.0-1.0-189.0","{""Q0"":""Northern Waterthrush""}","Northern Waterthrush","Wood-Warblers","862"
"","3556","image-multi-choice","191","1272181","0.0-1.0-190.0","{""Q0"":""Orange-crowned Warbler""}","Tennessee Warbler","Wood-Warblers","866"
"","4679","image-multi-choice","192","1277875","0.0-1.0-191.0","{""Q0"":""Nashville Warbler""}","Nashville Warbler","Wood-Warblers","868"
"","3408","image-multi-choice","193","1282296","0.0-1.0-192.0","{""Q0"":""Fox Sparrow""}","Fox Sparrow","New World Sparrows and Allies","901"
"","9108","image-multi-choice","194","1292420","0.0-1.0-193.0","{""Q0"":""Black-and-white Warbler""}","Blackburnian Warbler","Wood-Warblers","874"
"","7493","image-multi-choice","195","1300930","0.0-1.0-194.0","{""Q0"":""White-throated Sparrow""}","Swamp Sparrow","New World Sparrows and Allies","904"
"","5718","image-multi-choice","196","1307661","0.0-1.0-195.0","{""Q0"":""Magnolia Warbler""}","Townsend's Warbler","Wood-Warblers","881"
"","6077","image-multi-choice","197","1314749","0.0-1.0-196.0","{""Q0"":""Orange-crowned Warbler""}","Tennessee Warbler","Wood-Warblers","866"
"","5880","image-multi-choice","198","1321643","0.0-1.0-197.0","{""Q0"":""White-crowned Sparrow""}","White-crowned Sparrow","New World Sparrows and Allies","766"
"","4091","image-multi-choice","199","1326746","0.0-1.0-198.0","{""Q0"":""Ovenbird""}","Ovenbird","Wood-Warblers","860"
"","3728","image-multi-choice","200","1331489","0.0-1.0-199.0","{""Q0"":""Vesper Sparrow""}","Vesper Sparrow","New World Sparrows and Allies","898"
"","3723","image-multi-choice","201","1336227","0.0-1.0-200.0","{""Q0"":""Black-and-white Warbler""}","Blackburnian Warbler","Wood-Warblers","874"
"","5124","image-multi-choice","202","1342364","0.0-1.0-201.0","{""Q0"":""Chipping Sparrow""}","Chipping Sparrow","New World Sparrows and Allies","769"
"","8176","image-multi-choice","203","1351552","0.0-1.0-202.0","{""Q0"":""Lincoln's Sparrow""}","Vesper Sparrow","New World Sparrows and Allies","898"
"","4044","image-multi-choice","204","1356611","0.0-1.0-203.0","{""Q0"":""Yellow Warbler""}","Yellow Warbler","Wood-Warblers","875"
"","5745","image-multi-choice","205","1363371","0.0-1.0-204.0","{""Q0"":""Nashville Warbler""}","Orange-crowned Warbler","Wood-Warblers","867"
"","2572","image-multi-choice","206","1366960","0.0-1.0-205.0","{""Q0"":""White-throated Sparrow""}","White-throated Sparrow","New World Sparrows and Allies","764"
"","3397","image-multi-choice","207","1371370","0.0-1.0-206.0","{""Q0"":""American Tree Sparrow""}","American Tree Sparrow","New World Sparrows and Allies","894"
"","4439","image-multi-choice","208","1376823","0.0-1.0-207.0","{""Q0"":""Nashville Warbler""}","Orange-crowned Warbler","Wood-Warblers","867"
"","5413","image-multi-choice","209","1383253","0.0-1.0-208.0","{""Q0"":""Black-and-white Warbler""}","Black-and-white Warbler","Wood-Warblers","864"
"","2834","image-multi-choice","210","1387101","0.0-1.0-209.0","{""Q0"":""Lark Sparrow""}","Lark Sparrow","New World Sparrows and Allies","899"
"","5127","image-multi-choice","211","1393242","0.0-1.0-210.0","{""Q0"":""American Tree Sparrow""}","Chipping Sparrow","New World Sparrows and Allies","769"
"","5778","image-multi-choice","212","1400036","0.0-1.0-211.0","{""Q0"":""Yellow Warbler""}","Orange-crowned Warbler","Wood-Warblers","867"
"","2335","image-multi-choice","213","1403387","0.0-1.0-212.0","{""Q0"":""Yellow Warbler""}","Yellow Warbler","Wood-Warblers","875"
"","3165","image-multi-choice","214","1407565","0.0-1.0-213.0","{""Q0"":""American Tree Sparrow""}","American Tree Sparrow","New World Sparrows and Allies","894"
"","5756","image-multi-choice","215","1414335","0.0-1.0-214.0","{""Q0"":""Vesper Sparrow""}","Vesper Sparrow","New World Sparrows and Allies","898"
"","5256","image-multi-choice","216","1420601","0.0-1.0-215.0","{""Q0"":""Ovenbird""}","Ovenbird","Wood-Warblers","860"
"","4488","image-multi-choice","217","1426106","0.0-1.0-216.0","{""Q0"":""Lark Sparrow""}","Lark Sparrow","New World Sparrows and Allies","899"
"","5140","image-multi-choice","218","1432258","0.0-1.0-217.0","{""Q0"":""Song Sparrow""}","Lincoln's Sparrow","New World Sparrows and Allies","903"
"","5727","image-multi-choice","219","1438998","0.0-1.0-218.0","{""Q0"":""Townsend's Warbler""}","Chipping Sparrow","New World Sparrows and Allies","769"
"","5269","image-multi-choice","220","1445280","0.0-1.0-219.0","{""Q0"":""Song Sparrow""}","Lincoln's Sparrow","New World Sparrows and Allies","903"
"","7638","image-multi-choice","221","1453928","0.0-1.0-220.0","{""Q0"":""Northern Waterthrush""}","Northern Waterthrush","Wood-Warblers","862"
"","7053","image-multi-choice","222","1461997","0.0-1.0-221.0","{""Q0"":""Lincoln's Sparrow""}","Chipping Sparrow","New World Sparrows and Allies","769"
"","5835","image-multi-choice","223","1468846","0.0-1.0-222.0","{""Q0"":""Vesper Sparrow""}","Lincoln's Sparrow","New World Sparrows and Allies","903"
"","4454","image-multi-choice","224","1474311","0.0-1.0-223.0","{""Q0"":""Black-and-white Warbler""}","Blackburnian Warbler","Wood-Warblers","874"
"","5511","image-multi-choice","225","1480840","0.0-1.0-224.0","{""Q0"":""Song Sparrow""}","Swamp Sparrow","New World Sparrows and Allies","904"
"","4710","image-multi-choice","226","1486563","0.0-1.0-225.0","{""Q0"":""American Tree Sparrow""}","American Tree Sparrow","New World Sparrows and Allies","894"
"","3991","image-multi-choice","227","1491573","0.0-1.0-226.0","{""Q0"":""Fox Sparrow""}","Fox Sparrow","New World Sparrows and Allies","901"
"","3957","image-multi-choice","228","1496540","0.0-1.0-227.0","{""Q0"":""Northern Waterthrush""}","Northern Waterthrush","Wood-Warblers","862"
"","3402","image-multi-choice","229","1500957","0.0-1.0-228.0","{""Q0"":""Orange-crowned Warbler""}","Nashville Warbler","Wood-Warblers","868"
"","6068","image-multi-choice","230","1508040","0.0-1.0-229.0","{""Q0"":""Blackburnian Warbler""}","Black-and-white Warbler","Wood-Warblers","864"
"","4699","image-multi-choice","231","1513751","0.0-1.0-230.0","{""Q0"":""Orange-crowned Warbler""}","Tennessee Warbler","Wood-Warblers","866"
"","3663","image-multi-choice","232","1518439","0.0-1.0-231.0","{""Q0"":""Black-and-white Warbler""}","Townsend's Warbler","Wood-Warblers","881"
"","3639","image-multi-choice","233","1523091","0.0-1.0-232.0","{""Q0"":""Black-and-white Warbler""}","Magnolia Warbler","Wood-Warblers","758"
"","3907","image-multi-choice","234","1528015","0.0-1.0-233.0","{""Q0"":""Northern Waterthrush""}","Northern Waterthrush","Wood-Warblers","862"
"","5112","image-multi-choice","235","1534145","0.0-1.0-234.0","{""Q0"":""Orange-crowned Warbler""}","Orange-crowned Warbler","Wood-Warblers","867"
"","2771","image-multi-choice","236","1537930","0.0-1.0-235.0","{""Q0"":""White-throated Sparrow""}","White-throated Sparrow","New World Sparrows and Allies","764"
"","6132","image-multi-choice","237","1545075","0.0-1.0-236.0","{""Q0"":""Yellow Warbler""}","Yellow Warbler","Wood-Warblers","875"
"","3861","image-multi-choice","238","1549949","0.0-1.0-237.0","{""Q0"":""Fox Sparrow""}","Fox Sparrow","New World Sparrows and Allies","901"
"","3579","image-multi-choice","239","1554542","0.0-1.0-238.0","{""Q0"":""White-throated Sparrow""}","Swamp Sparrow","New World Sparrows and Allies","904"
"","3657","image-multi-choice","240","1570333","0.0-1.0-239.0","{""Q0"":""Fox Sparrow""}","Fox Sparrow","New World Sparrows and Allies","901"
"","4991","image-multi-choice","241","1576339","0.0-1.0-240.0","{""Q0"":""Orange-crowned Warbler""}","Orange-crowned Warbler","Wood-Warblers","867"
"","2794","image-multi-choice","242","1580148","0.0-1.0-241.0","{""Q0"":""White-crowned Sparrow""}","White-crowned Sparrow","New World Sparrows and Allies","766"
"","6016","image-multi-choice","243","1587177","0.0-1.0-242.0","{""Q0"":""White-throated Sparrow""}","White-throated Sparrow","New World Sparrows and Allies","764"
"","4758","image-multi-choice","244","1592950","0.0-1.0-243.0","{""Q0"":""Lincoln's Sparrow""}","Song Sparrow","New World Sparrows and Allies","902"
"","2810","image-multi-choice","245","1596771","0.0-1.0-244.0","{""Q0"":""Lark Sparrow""}","Lark Sparrow","New World Sparrows and Allies","899"
"","3577","image-multi-choice","246","1601359","0.0-1.0-245.0","{""Q0"":""Lark Sparrow""}","Vesper Sparrow","New World Sparrows and Allies","898"
"","3004","image-multi-choice","247","1605378","0.0-1.0-246.0","{""Q0"":""Lark Sparrow""}","Lark Sparrow","New World Sparrows and Allies","899"
"","4244","image-multi-choice","248","1610637","0.0-1.0-247.0","{""Q0"":""American Tree Sparrow""}","American Tree Sparrow","New World Sparrows and Allies","894"
"","3525","image-multi-choice","249","1615176","0.0-1.0-248.0","{""Q0"":""Black-and-white Warbler""}","Black-and-white Warbler","Wood-Warblers","864"
"","3677","image-multi-choice","250","1619866","0.0-1.0-249.0","{""Q0"":""Lark Sparrow""}","Lark Sparrow","New World Sparrows and Allies","899"
"","5992","image-multi-choice","251","1626872","0.0-1.0-250.0","{""Q0"":""Orange-crowned Warbler""}","Orange-crowned Warbler","Wood-Warblers","867"
"","3359","image-multi-choice","252","1631252","0.0-1.0-251.0","{""Q0"":""Black-and-white Warbler""}","Blackburnian Warbler","Wood-Warblers","874"
"","4177","image-multi-choice","253","1636444","0.0-1.0-252.0","{""Q0"":""Lark Sparrow""}","Vesper Sparrow","New World Sparrows and Allies","898"
"","3416","image-multi-choice","254","1640872","0.0-1.0-253.0","{""Q0"":""Black-and-white Warbler""}","Townsend's Warbler","Wood-Warblers","881"
"","8113","image-multi-choice","255","1650001","0.0-1.0-254.0","{""Q0"":""Vesper Sparrow""}","Swamp Sparrow","New World Sparrows and Allies","904"
"","5560","image-multi-choice","256","1656576","0.0-1.0-255.0","{""Q0"":""Song Sparrow""}","Song Sparrow","New World Sparrows and Allies","902"
"","4628","image-multi-choice","257","1662219","0.0-1.0-256.0","{""Q0"":""White-throated Sparrow""}","Swamp Sparrow","New World Sparrows and Allies","904"
"","3942","image-multi-choice","258","1667175","0.0-1.0-257.0","{""Q0"":""Ovenbird""}","Ovenbird","Wood-Warblers","860"
"","4022","image-multi-choice","259","1672217","0.0-1.0-258.0","{""Q0"":""Black-and-white Warbler""}","Black-and-white Warbler","Wood-Warblers","864"
"","5160","image-multi-choice","260","1678392","0.0-1.0-259.0","{""Q0"":""White-throated Sparrow""}","American Tree Sparrow","New World Sparrows and Allies","894"
"","2606","image-multi-choice","261","1682011","0.0-1.0-260.0","{""Q0"":""Yellow Warbler""}","Yellow Warbler","Wood-Warblers","875"
"","4822","image-multi-choice","262","1687849","0.0-1.0-261.0","{""Q0"":""Lincoln's Sparrow""}","Vesper Sparrow","New World Sparrows and Allies","898"
"","7203","image-multi-choice","263","1696066","0.0-1.0-262.0","{""Q0"":""American Tree Sparrow""}","Chipping Sparrow","New World Sparrows and Allies","769"
"","6360","image-multi-choice","264","1703437","0.0-1.0-263.0","{""Q0"":""Northern Waterthrush""}","Northern Waterthrush","Wood-Warblers","862"
"","4106","image-multi-choice","265","1708560","0.0-1.0-264.0","{""Q0"":""Song Sparrow""}","Song Sparrow","New World Sparrows and Allies","902"
"","3202","image-multi-choice","266","1712775","0.0-1.0-265.0","{""Q0"":""Nashville Warbler""}","Nashville Warbler","Wood-Warblers","868"
"","2484","image-multi-choice","267","1716271","0.0-1.0-266.0","{""Q0"":""White-throated Sparrow""}","White-throated Sparrow","New World Sparrows and Allies","764"
"","2679","image-multi-choice","268","1719964","0.0-1.0-267.0","{""Q0"":""White-crowned Sparrow""}","White-crowned Sparrow","New World Sparrows and Allies","766"
"","4124","image-multi-choice","269","1725100","0.0-1.0-268.0","{""Q0"":""American Tree Sparrow""}","American Tree Sparrow","New World Sparrows and Allies","894"
"","6733","image-multi-choice","270","1732849","0.0-1.0-269.0","{""Q0"":""Lark Sparrow""}","White-throated Sparrow","New World Sparrows and Allies","764"
"","2929","image-multi-choice","271","1736796","0.0-1.0-270.0","{""Q0"":""White-throated Sparrow""}","White-crowned Sparrow","New World Sparrows and Allies","766"
"","2450","image-multi-choice","272","1740263","0.0-1.0-271.0","{""Q0"":""Yellow Warbler""}","Yellow Warbler","Wood-Warblers","875"
"","7876","image-multi-choice","273","1749151","0.0-1.0-272.0","{""Q0"":""Lincoln's Sparrow""}","Chipping Sparrow","New World Sparrows and Allies","769"
"","4485","image-multi-choice","274","1754647","0.0-1.0-273.0","{""Q0"":""Northern Waterthrush""}","Ovenbird","Wood-Warblers","860"
"","6067","image-multi-choice","275","1761727","0.0-1.0-274.0","{""Q0"":""Northern Waterthrush""}","Northern Waterthrush","Wood-Warblers","862"
"","4349","image-multi-choice","276","1767091","0.0-1.0-275.0","{""Q0"":""Ovenbird""}","Ovenbird","Wood-Warblers","860"
"","3837","image-multi-choice","277","1771940","0.0-1.0-276.0","{""Q0"":""Black-and-white Warbler""}","Black-and-white Warbler","Wood-Warblers","864"
"","7676","image-multi-choice","278","1780632","0.0-1.0-277.0","{""Q0"":""Lark Sparrow""}","Chipping Sparrow","New World Sparrows and Allies","769"
"","3356","image-multi-choice","279","1785000","0.0-1.0-278.0","{""Q0"":""Fox Sparrow""}","Fox Sparrow","New World Sparrows and Allies","901"
"","3515","image-multi-choice","280","1789539","0.0-1.0-279.0","{""Q0"":""Black-and-white Warbler""}","Magnolia Warbler","Wood-Warblers","758"
"","3173","image-multi-choice","281","1793726","0.0-1.0-280.0","{""Q0"":""White-crowned Sparrow""}","White-crowned Sparrow","New World Sparrows and Allies","766"
"","6745","image-multi-choice","282","1801483","0.0-1.0-281.0","{""Q0"":""White-throated Sparrow""}","White-throated Sparrow","New World Sparrows and Allies","764"
"","4874","image-multi-choice","283","1807377","0.0-1.0-282.0","{""Q0"":""Vesper Sparrow""}","Swamp Sparrow","New World Sparrows and Allies","904"
"","4041","image-multi-choice","284","1812433","0.0-1.0-283.0","{""Q0"":""Black-and-white Warbler""}","Magnolia Warbler","Wood-Warblers","758"
"","5701","image-multi-choice","285","1819147","0.0-1.0-284.0","{""Q0"":""Orange-crowned Warbler""}","Orange-crowned Warbler","Wood-Warblers","867"
"","5100","image-multi-choice","286","1825258","0.0-1.0-285.0","{""Q0"":""Black-and-white Warbler""}","Magnolia Warbler","Wood-Warblers","758"
"","4078","image-multi-choice","287","1830352","0.0-1.0-286.0","{""Q0"":""Song Sparrow""}","Vesper Sparrow","New World Sparrows and Allies","898"
"","4455","image-multi-choice","288","1835821","0.0-1.0-287.0","{""Q0"":""Northern Waterthrush""}","Northern Waterthrush","Wood-Warblers","862"
"","5099","image-multi-choice","289","1841932","0.0-1.0-288.0","{""Q0"":""Black-and-white Warbler""}","Blackburnian Warbler","Wood-Warblers","874"
"","3875","image-multi-choice","290","1846824","0.0-1.0-289.0","{""Q0"":""Orange-crowned Warbler""}","Tennessee Warbler","Wood-Warblers","866"
"","2951","image-multi-choice","291","1850788","0.0-1.0-290.0","{""Q0"":""Lark Sparrow""}","Lark Sparrow","New World Sparrows and Allies","899"
"","2988","image-multi-choice","292","1854788","0.0-1.0-291.0","{""Q0"":""Black-and-white Warbler""}","Black-and-white Warbler","Wood-Warblers","864"
"","6145","image-multi-choice","293","1861947","0.0-1.0-292.0","{""Q0"":""Lincoln's Sparrow""}","Lincoln's Sparrow","New World Sparrows and Allies","903"
"","5331","image-multi-choice","294","1868292","0.0-1.0-293.0","{""Q0"":""Orange-crowned Warbler""}","Tennessee Warbler","Wood-Warblers","866"
"","6072","image-multi-choice","295","1875382","0.0-1.0-294.0","{""Q0"":""Northern Waterthrush""}","Ovenbird","Wood-Warblers","860"
"","4925","image-multi-choice","296","1881323","0.0-1.0-295.0","{""Q0"":""Song Sparrow""}","Vesper Sparrow","New World Sparrows and Allies","898"
"","3992","image-multi-choice","297","1886331","0.0-1.0-296.0","{""Q0"":""Northern Waterthrush""}","Northern Waterthrush","Wood-Warblers","862"
"","3901","image-multi-choice","298","1891246","0.0-1.0-297.0","{""Q0"":""Vesper Sparrow""}","Chipping Sparrow","New World Sparrows and Allies","769"
"","8392","image-multi-choice","299","1900649","0.0-1.0-298.0","{""Q0"":""Lark Sparrow""}","Lark Sparrow","New World Sparrows and Allies","899"
"","2009","image-multi-choice","300","1907875","0.0-1.0-299.0","{""Q0"":""Yellow Warbler""}","Yellow Warbler","Wood-Warblers","875"
"[{""page_index"":0,""viewing_time"":3394}]","3395","instructions","301","1912271","0.0-2.0","","","",""
