[{"view_history":"[{\"page_index\":0,\"viewing_time\":26965}]","rt":26966,"trial_type":"instructions","trial_index":0,"time_elapsed":26967,"internal_node_id":"0.0-0.0"},{"rt":53240,"responses":"{\"Q0\":\"Blackburnian Warbler\"}","bird":["Townsend's Warbler"],"family":["Wood-Warblers"],"class":["881"],"trial_type":"image-multi-choice","trial_index":1,"time_elapsed":81236,"internal_node_id":"0.0-1.0-0.0"},{"rt":4967,"responses":"{\"Q0\":\"Lark Sparrow\"}","bird":["Lark Sparrow"],"family":["New World Sparrows and Allies"],"class":["899"],"trial_type":"image-multi-choice","trial_index":2,"time_elapsed":87222,"internal_node_id":"0.0-1.0-1.0"},{"rt":6747,"responses":"{\"Q0\":\"White-crowned Sparrow\"}","bird":["White-crowned Sparrow"],"family":["New World Sparrows and Allies"],"class":["766"],"trial_type":"image-multi-choice","trial_index":3,"time_elapsed":94989,"internal_node_id":"0.0-1.0-2.0"},{"rt":5824,"responses":"{\"Q0\":\"Lark Sparrow\"}","bird":["Lark Sparrow"],"family":["New World Sparrows and Allies"],"class":["899"],"trial_type":"image-multi-choice","trial_index":4,"time_elapsed":101832,"internal_node_id":"0.0-1.0-3.0"},{"rt":3558,"responses":"{\"Q0\":\"White-throated Sparrow\"}","bird":["White-throated Sparrow"],"family":["New World Sparrows and Allies"],"class":["764"],"trial_type":"image-multi-choice","trial_index":5,"time_elapsed":106409,"internal_node_id":"0.0-1.0-4.0"},{"rt":4698,"responses":"{\"Q0\":\"White-crowned Sparrow\"}","bird":["White-crowned Sparrow"],"family":["New World Sparrows and Allies"],"class":["766"],"trial_type":"image-multi-choice","trial_index":6,"time_elapsed":112122,"internal_node_id":"0.0-1.0-5.0"},{"rt":11303,"responses":"{\"Q0\":\"Orange-crowned Warbler\"}","bird":["Tennessee Warbler"],"family":["Wood-Warblers"],"class":["866"],"trial_type":"image-multi-choice","trial_index":7,"time_elapsed":124450,"internal_node_id":"0.0-1.0-6.0"},{"rt":3990,"responses":"{\"Q0\":\"White-throated Sparrow\"}","bird":["White-crowned Sparrow"],"family":["New World Sparrows and Allies"],"class":["766"],"trial_type":"image-multi-choice","trial_index":8,"time_elapsed":129459,"internal_node_id":"0.0-1.0-7.0"},{"rt":5385,"responses":"{\"Q0\":\"Nashville Warbler\"}","bird":["Orange-crowned Warbler"],"family":["Wood-Warblers"],"class":["867"],"trial_type":"image-multi-choice","trial_index":9,"time_elapsed":135857,"internal_node_id":"0.0-1.0-8.0"},{"rt":3891,"responses":"{\"Q0\":\"White-throated Sparrow\"}","bird":["Swamp Sparrow"],"family":["New World Sparrows and Allies"],"class":["904"],"trial_type":"image-multi-choice","trial_index":10,"time_elapsed":140763,"internal_node_id":"0.0-1.0-9.0"},{"rt":5827,"responses":"{\"Q0\":\"Orange-crowned Warbler\"}","bird":["Orange-crowned Warbler"],"family":["Wood-Warblers"],"class":["867"],"trial_type":"image-multi-choice","trial_index":11,"time_elapsed":147606,"internal_node_id":"0.0-1.0-10.0"},{"rt":6511,"responses":"{\"Q0\":\"White-throated Sparrow\"}","bird":["White-crowned Sparrow"],"family":["New World Sparrows and Allies"],"class":["766"],"trial_type":"image-multi-choice","trial_index":12,"time_elapsed":155134,"internal_node_id":"0.0-1.0-11.0"},{"rt":9556,"responses":"{\"Q0\":\"Blackburnian Warbler\"}","bird":["Townsend's Warbler"],"family":["Wood-Warblers"],"class":["881"],"trial_type":"image-multi-choice","trial_index":13,"time_elapsed":165707,"internal_node_id":"0.0-1.0-12.0"},{"rt":14754,"responses":"{\"Q0\":\"Vesper Sparrow\"}","bird":["Lincoln's Sparrow"],"family":["New World Sparrows and Allies"],"class":["903"],"trial_type":"image-multi-choice","trial_index":14,"time_elapsed":181478,"internal_node_id":"0.0-1.0-13.0"},{"rt":3826,"responses":"{\"Q0\":\"Ovenbird\"}","bird":["Ovenbird"],"family":["Wood-Warblers"],"class":["860"],"trial_type":"image-multi-choice","trial_index":15,"time_elapsed":186319,"internal_node_id":"0.0-1.0-14.0"},{"rt":7016,"responses":"{\"Q0\":\"Nashville Warbler\"}","bird":["Tennessee Warbler"],"family":["Wood-Warblers"],"class":["866"],"trial_type":"image-multi-choice","trial_index":16,"time_elapsed":194351,"internal_node_id":"0.0-1.0-15.0"},{"rt":5897,"responses":"{\"Q0\":\"Song Sparrow\"}","bird":["Vesper Sparrow"],"family":["New World Sparrows and Allies"],"class":["898"],"trial_type":"image-multi-choice","trial_index":17,"time_elapsed":201262,"internal_node_id":"0.0-1.0-16.0"},{"rt":15889,"responses":"{\"Q0\":\"Townsend's Warbler\"}","bird":["Tennessee Warbler"],"family":["Wood-Warblers"],"class":["866"],"trial_type":"image-multi-choice","trial_index":18,"time_elapsed":218165,"internal_node_id":"0.0-1.0-17.0"},{"rt":6204,"responses":"{\"Q0\":\"Swamp Sparrow\"}","bird":["Vesper Sparrow"],"family":["New World Sparrows and Allies"],"class":["898"],"trial_type":"image-multi-choice","trial_index":19,"time_elapsed":225380,"internal_node_id":"0.0-1.0-18.0"},{"rt":4441,"responses":"{\"Q0\":\"Song Sparrow\"}","bird":["Song Sparrow"],"family":["New World Sparrows and Allies"],"class":["902"],"trial_type":"image-multi-choice","trial_index":20,"time_elapsed":230833,"internal_node_id":"0.0-1.0-19.0"},{"rt":4845,"responses":"{\"Q0\":\"Black-and-white Warbler\"}","bird":["Magnolia Warbler"],"family":["Wood-Warblers"],"class":["758"],"trial_type":"image-multi-choice","trial_index":21,"time_elapsed":236696,"internal_node_id":"0.0-1.0-20.0"},{"rt":5852,"responses":"{\"Q0\":\"Yellow Warbler\"}","bird":["Orange-crowned Warbler"],"family":["Wood-Warblers"],"class":["867"],"trial_type":"image-multi-choice","trial_index":22,"time_elapsed":243560,"internal_node_id":"0.0-1.0-21.0"},{"rt":5282,"responses":"{\"Q0\":\"Black-and-white Warbler\"}","bird":["Townsend's Warbler"],"family":["Wood-Warblers"],"class":["881"],"trial_type":"image-multi-choice","trial_index":23,"time_elapsed":249860,"internal_node_id":"0.0-1.0-22.0"},{"rt":4586,"responses":"{\"Q0\":\"Ovenbird\"}","bird":["Ovenbird"],"family":["Wood-Warblers"],"class":["860"],"trial_type":"image-multi-choice","trial_index":24,"time_elapsed":255461,"internal_node_id":"0.0-1.0-23.0"},{"rt":4345,"responses":"{\"Q0\":\"Song Sparrow\"}","bird":["Lincoln's Sparrow"],"family":["New World Sparrows and Allies"],"class":["903"],"trial_type":"image-multi-choice","trial_index":25,"time_elapsed":260820,"internal_node_id":"0.0-1.0-24.0"},{"rt":3153,"responses":"{\"Q0\":\"White-throated Sparrow\"}","bird":["White-throated Sparrow"],"family":["New World Sparrows and Allies"],"class":["764"],"trial_type":"image-multi-choice","trial_index":26,"time_elapsed":264985,"internal_node_id":"0.0-1.0-25.0"},{"rt":3853,"responses":"{\"Q0\":\"Ovenbird\"}","bird":["Ovenbird"],"family":["Wood-Warblers"],"class":["860"],"trial_type":"image-multi-choice","trial_index":27,"time_elapsed":269851,"internal_node_id":"0.0-1.0-26.0"},{"rt":5414,"responses":"{\"Q0\":\"White-crowned Sparrow\"}","bird":["Chipping Sparrow"],"family":["New World Sparrows and Allies"],"class":["769"],"trial_type":"image-multi-choice","trial_index":28,"time_elapsed":276278,"internal_node_id":"0.0-1.0-27.0"},{"rt":5673,"responses":"{\"Q0\":\"Fox Sparrow\"}","bird":["Fox Sparrow"],"family":["New World Sparrows and Allies"],"class":["901"],"trial_type":"image-multi-choice","trial_index":29,"time_elapsed":282965,"internal_node_id":"0.0-1.0-28.0"},{"rt":9420,"responses":"{\"Q0\":\"Magnolia Warbler\"}","bird":["Magnolia Warbler"],"family":["Wood-Warblers"],"class":["758"],"trial_type":"image-multi-choice","trial_index":30,"time_elapsed":293400,"internal_node_id":"0.0-1.0-29.0"},{"rt":3775,"responses":"{\"Q0\":\"Ovenbird\"}","bird":["Northern Waterthrush"],"family":["Wood-Warblers"],"class":["862"],"trial_type":"image-multi-choice","trial_index":31,"time_elapsed":298190,"internal_node_id":"0.0-1.0-30.0"},{"rt":7097,"responses":"{\"Q0\":\"Tennessee Warbler\"}","bird":["Tennessee Warbler"],"family":["Wood-Warblers"],"class":["866"],"trial_type":"image-multi-choice","trial_index":32,"time_elapsed":306305,"internal_node_id":"0.0-1.0-31.0"},{"rt":3522,"responses":"{\"Q0\":\"Black-and-white Warbler\"}","bird":["Magnolia Warbler"],"family":["Wood-Warblers"],"class":["758"],"trial_type":"image-multi-choice","trial_index":33,"time_elapsed":310844,"internal_node_id":"0.0-1.0-32.0"},{"rt":4184,"responses":"{\"Q0\":\"Song Sparrow\"}","bird":["Song Sparrow"],"family":["New World Sparrows and Allies"],"class":["902"],"trial_type":"image-multi-choice","trial_index":34,"time_elapsed":316042,"internal_node_id":"0.0-1.0-33.0"},{"rt":4092,"responses":"{\"Q0\":\"Lark Sparrow\"}","bird":["Lark Sparrow"],"family":["New World Sparrows and Allies"],"class":["899"],"trial_type":"image-multi-choice","trial_index":35,"time_elapsed":321150,"internal_node_id":"0.0-1.0-34.0"},{"rt":6282,"responses":"{\"Q0\":\"Orange-crowned Warbler\"}","bird":["Nashville Warbler"],"family":["Wood-Warblers"],"class":["868"],"trial_type":"image-multi-choice","trial_index":36,"time_elapsed":328450,"internal_node_id":"0.0-1.0-35.0"},{"rt":4015,"responses":"{\"Q0\":\"Ovenbird\"}","bird":["Northern Waterthrush"],"family":["Wood-Warblers"],"class":["862"],"trial_type":"image-multi-choice","trial_index":37,"time_elapsed":333477,"internal_node_id":"0.0-1.0-36.0"},{"rt":5272,"responses":"{\"Q0\":\"Chipping Sparrow\"}","bird":["Chipping Sparrow"],"family":["New World Sparrows and Allies"],"class":["769"],"trial_type":"image-multi-choice","trial_index":38,"time_elapsed":339764,"internal_node_id":"0.0-1.0-37.0"},{"rt":5530,"responses":"{\"Q0\":\"Yellow Warbler\"}","bird":["Yellow Warbler"],"family":["Wood-Warblers"],"class":["875"],"trial_type":"image-multi-choice","trial_index":39,"time_elapsed":346308,"internal_node_id":"0.0-1.0-38.0"},{"rt":3908,"responses":"{\"Q0\":\"Ovenbird\"}","bird":["Ovenbird"],"family":["Wood-Warblers"],"class":["860"],"trial_type":"image-multi-choice","trial_index":40,"time_elapsed":351229,"internal_node_id":"0.0-1.0-39.0"},{"rt":8615,"responses":"{\"Q0\":\"Magnolia Warbler\"}","bird":["Black-and-white Warbler"],"family":["Wood-Warblers"],"class":["864"],"trial_type":"image-multi-choice","trial_index":41,"time_elapsed":360859,"internal_node_id":"0.0-1.0-40.0"},{"rt":6636,"responses":"{\"Q0\":\"Orange-crowned Warbler\"}","bird":["Tennessee Warbler"],"family":["Wood-Warblers"],"class":["866"],"trial_type":"image-multi-choice","trial_index":42,"time_elapsed":368515,"internal_node_id":"0.0-1.0-41.0"},{"rt":8374,"responses":"{\"Q0\":\"Song Sparrow\"}","bird":["Song Sparrow"],"family":["New World Sparrows and Allies"],"class":["902"],"trial_type":"image-multi-choice","trial_index":43,"time_elapsed":377901,"internal_node_id":"0.0-1.0-42.0"},{"rt":4250,"responses":"{\"Q0\":\"Black-and-white Warbler\"}","bird":["Blackburnian Warbler"],"family":["Wood-Warblers"],"class":["874"],"trial_type":"image-multi-choice","trial_index":44,"time_elapsed":383169,"internal_node_id":"0.0-1.0-43.0"},{"rt":8056,"responses":"{\"Q0\":\"Northern Waterthrush\"}","bird":["Black-and-white Warbler"],"family":["Wood-Warblers"],"class":["864"],"trial_type":"image-multi-choice","trial_index":45,"time_elapsed":392241,"internal_node_id":"0.0-1.0-44.0"},{"rt":5778,"responses":"{\"Q0\":\"Blackburnian Warbler\"}","bird":["Magnolia Warbler"],"family":["Wood-Warblers"],"class":["758"],"trial_type":"image-multi-choice","trial_index":46,"time_elapsed":399032,"internal_node_id":"0.0-1.0-45.0"},{"rt":5288,"responses":"{\"Q0\":\"Ovenbird\"}","bird":["Ovenbird"],"family":["Wood-Warblers"],"class":["860"],"trial_type":"image-multi-choice","trial_index":47,"time_elapsed":405337,"internal_node_id":"0.0-1.0-46.0"},{"rt":4119,"responses":"{\"Q0\":\"Song Sparrow\"}","bird":["Vesper Sparrow"],"family":["New World Sparrows and Allies"],"class":["898"],"trial_type":"image-multi-choice","trial_index":48,"time_elapsed":410468,"internal_node_id":"0.0-1.0-47.0"},{"rt":3248,"responses":"{\"Q0\":\"White-throated Sparrow\"}","bird":["Lark Sparrow"],"family":["New World Sparrows and Allies"],"class":["899"],"trial_type":"image-multi-choice","trial_index":49,"time_elapsed":414733,"internal_node_id":"0.0-1.0-48.0"},{"rt":3951,"responses":"{\"Q0\":\"Ovenbird\"}","bird":["Black-and-white Warbler"],"family":["Wood-Warblers"],"class":["864"],"trial_type":"image-multi-choice","trial_index":50,"time_elapsed":419698,"internal_node_id":"0.0-1.0-49.0"},{"rt":5108,"responses":"{\"Q0\":\"Blackburnian Warbler\"}","bird":["Townsend's Warbler"],"family":["Wood-Warblers"],"class":["881"],"trial_type":"image-multi-choice","trial_index":51,"time_elapsed":425821,"internal_node_id":"0.0-1.0-50.0"},{"rt":4217,"responses":"{\"Q0\":\"Orange-crowned Warbler\"}","bird":["Nashville Warbler"],"family":["Wood-Warblers"],"class":["868"],"trial_type":"image-multi-choice","trial_index":52,"time_elapsed":431052,"internal_node_id":"0.0-1.0-51.0"},{"rt":6921,"responses":"{\"Q0\":\"White-throated Sparrow\"}","bird":["Chipping Sparrow"],"family":["New World Sparrows and Allies"],"class":["769"],"trial_type":"image-multi-choice","trial_index":53,"time_elapsed":438987,"internal_node_id":"0.0-1.0-52.0"},{"rt":6722,"responses":"{\"Q0\":\"Song Sparrow\"}","bird":["Swamp Sparrow"],"family":["New World Sparrows and Allies"],"class":["904"],"trial_type":"image-multi-choice","trial_index":54,"time_elapsed":446724,"internal_node_id":"0.0-1.0-53.0"},{"rt":3611,"responses":"{\"Q0\":\"White-crowned Sparrow\"}","bird":["White-crowned Sparrow"],"family":["New World Sparrows and Allies"],"class":["766"],"trial_type":"image-multi-choice","trial_index":55,"time_elapsed":451347,"internal_node_id":"0.0-1.0-54.0"},{"rt":8157,"responses":"{\"Q0\":\"Black-and-white Warbler\"}","bird":["Black-and-white Warbler"],"family":["Wood-Warblers"],"class":["864"],"trial_type":"image-multi-choice","trial_index":56,"time_elapsed":460518,"internal_node_id":"0.0-1.0-55.0"},{"rt":4366,"responses":"{\"Q0\":\"Orange-crowned Warbler\"}","bird":["Tennessee Warbler"],"family":["Wood-Warblers"],"class":["866"],"trial_type":"image-multi-choice","trial_index":57,"time_elapsed":465897,"internal_node_id":"0.0-1.0-56.0"},{"rt":5654,"responses":"{\"Q0\":\"Magnolia Warbler\"}","bird":["Townsend's Warbler"],"family":["Wood-Warblers"],"class":["881"],"trial_type":"image-multi-choice","trial_index":58,"time_elapsed":472565,"internal_node_id":"0.0-1.0-57.0"},{"rt":4365,"responses":"{\"Q0\":\"Orange-crowned Warbler\"}","bird":["Nashville Warbler"],"family":["Wood-Warblers"],"class":["868"],"trial_type":"image-multi-choice","trial_index":59,"time_elapsed":477941,"internal_node_id":"0.0-1.0-58.0"},{"rt":5998,"responses":"{\"Q0\":\"Vesper Sparrow\"}","bird":["Lincoln's Sparrow"],"family":["New World Sparrows and Allies"],"class":["903"],"trial_type":"image-multi-choice","trial_index":60,"time_elapsed":501657,"internal_node_id":"0.0-1.0-59.0"},{"rt":11628,"responses":"{\"Q0\":\"Vesper Sparrow\"}","bird":["Song Sparrow"],"family":["New World Sparrows and Allies"],"class":["902"],"trial_type":"image-multi-choice","trial_index":61,"time_elapsed":514302,"internal_node_id":"0.0-1.0-60.0"},{"rt":2977,"responses":"{\"Q0\":\"Yellow Warbler\"}","bird":["Yellow Warbler"],"family":["Wood-Warblers"],"class":["875"],"trial_type":"image-multi-choice","trial_index":62,"time_elapsed":518295,"internal_node_id":"0.0-1.0-61.0"},{"rt":3483,"responses":"{\"Q0\":\"White-throated Sparrow\"}","bird":["White-throated Sparrow"],"family":["New World Sparrows and Allies"],"class":["764"],"trial_type":"image-multi-choice","trial_index":63,"time_elapsed":522793,"internal_node_id":"0.0-1.0-62.0"},{"rt":5338,"responses":"{\"Q0\":\"Orange-crowned Warbler\"}","bird":["Tennessee Warbler"],"family":["Wood-Warblers"],"class":["866"],"trial_type":"image-multi-choice","trial_index":64,"time_elapsed":529149,"internal_node_id":"0.0-1.0-63.0"},{"rt":8698,"responses":"{\"Q0\":\"Chipping Sparrow\"}","bird":["Lincoln's Sparrow"],"family":["New World Sparrows and Allies"],"class":["903"],"trial_type":"image-multi-choice","trial_index":65,"time_elapsed":538860,"internal_node_id":"0.0-1.0-64.0"},{"rt":4721,"responses":"{\"Q0\":\"Magnolia Warbler\"}","bird":["Blackburnian Warbler"],"family":["Wood-Warblers"],"class":["874"],"trial_type":"image-multi-choice","trial_index":66,"time_elapsed":544601,"internal_node_id":"0.0-1.0-65.0"},{"rt":5673,"responses":"{\"Q0\":\"Northern Waterthrush\"}","bird":["Northern Waterthrush"],"family":["Wood-Warblers"],"class":["862"],"trial_type":"image-multi-choice","trial_index":67,"time_elapsed":551287,"internal_node_id":"0.0-1.0-66.0"},{"rt":2798,"responses":"{\"Q0\":\"Yellow Warbler\"}","bird":["Yellow Warbler"],"family":["Wood-Warblers"],"class":["875"],"trial_type":"image-multi-choice","trial_index":68,"time_elapsed":555096,"internal_node_id":"0.0-1.0-67.0"},{"rt":8291,"responses":"{\"Q0\":\"Vesper Sparrow\"}","bird":["Lincoln's Sparrow"],"family":["New World Sparrows and Allies"],"class":["903"],"trial_type":"image-multi-choice","trial_index":69,"time_elapsed":564398,"internal_node_id":"0.0-1.0-68.0"},{"rt":4789,"responses":"{\"Q0\":\"American Tree Sparrow\"}","bird":["American Tree Sparrow"],"family":["New World Sparrows and Allies"],"class":["894"],"trial_type":"image-multi-choice","trial_index":70,"time_elapsed":570202,"internal_node_id":"0.0-1.0-69.0"},{"rt":4662,"responses":"{\"Q0\":\"Tennessee Warbler\"}","bird":["Orange-crowned Warbler"],"family":["Wood-Warblers"],"class":["867"],"trial_type":"image-multi-choice","trial_index":71,"time_elapsed":575879,"internal_node_id":"0.0-1.0-70.0"},{"rt":7333,"responses":"{\"Q0\":\"Vesper Sparrow\"}","bird":["Lincoln's Sparrow"],"family":["New World Sparrows and Allies"],"class":["903"],"trial_type":"image-multi-choice","trial_index":72,"time_elapsed":584224,"internal_node_id":"0.0-1.0-71.0"},{"rt":4066,"responses":"{\"Q0\":\"Magnolia Warbler\"}","bird":["Magnolia Warbler"],"family":["Wood-Warblers"],"class":["758"],"trial_type":"image-multi-choice","trial_index":73,"time_elapsed":589303,"internal_node_id":"0.0-1.0-72.0"},{"rt":4551,"responses":"{\"Q0\":\"Lincoln's Sparrow\"}","bird":["Lincoln's Sparrow"],"family":["New World Sparrows and Allies"],"class":["903"],"trial_type":"image-multi-choice","trial_index":74,"time_elapsed":594869,"internal_node_id":"0.0-1.0-73.0"},{"rt":3045,"responses":"{\"Q0\":\"Yellow Warbler\"}","bird":["Yellow Warbler"],"family":["Wood-Warblers"],"class":["875"],"trial_type":"image-multi-choice","trial_index":75,"time_elapsed":598927,"internal_node_id":"0.0-1.0-74.0"},{"rt":2773,"responses":"{\"Q0\":\"White-crowned Sparrow\"}","bird":["White-crowned Sparrow"],"family":["New World Sparrows and Allies"],"class":["766"],"trial_type":"image-multi-choice","trial_index":76,"time_elapsed":602714,"internal_node_id":"0.0-1.0-75.0"},{"rt":4200,"responses":"{\"Q0\":\"Orange-crowned Warbler\"}","bird":["Nashville Warbler"],"family":["Wood-Warblers"],"class":["868"],"trial_type":"image-multi-choice","trial_index":77,"time_elapsed":607927,"internal_node_id":"0.0-1.0-76.0"},{"rt":6003,"responses":"{\"Q0\":\"Chipping Sparrow\"}","bird":["American Tree Sparrow"],"family":["New World Sparrows and Allies"],"class":["894"],"trial_type":"image-multi-choice","trial_index":78,"time_elapsed":614943,"internal_node_id":"0.0-1.0-77.0"},{"rt":4011,"responses":"{\"Q0\":\"Black-and-white Warbler\"}","bird":["Townsend's Warbler"],"family":["Wood-Warblers"],"class":["881"],"trial_type":"image-multi-choice","trial_index":79,"time_elapsed":619970,"internal_node_id":"0.0-1.0-78.0"},{"rt":5464,"responses":"{\"Q0\":\"Chipping Sparrow\"}","bird":["Chipping Sparrow"],"family":["New World Sparrows and Allies"],"class":["769"],"trial_type":"image-multi-choice","trial_index":80,"time_elapsed":626447,"internal_node_id":"0.0-1.0-79.0"},{"rt":2896,"responses":"{\"Q0\":\"White-throated Sparrow\"}","bird":["White-throated Sparrow"],"family":["New World Sparrows and Allies"],"class":["764"],"trial_type":"image-multi-choice","trial_index":81,"time_elapsed":630356,"internal_node_id":"0.0-1.0-80.0"},{"rt":3890,"responses":"{\"Q0\":\"Ovenbird\"}","bird":["Ovenbird"],"family":["Wood-Warblers"],"class":["860"],"trial_type":"image-multi-choice","trial_index":82,"time_elapsed":635259,"internal_node_id":"0.0-1.0-81.0"},{"rt":7296,"responses":"{\"Q0\":\"White-crowned Sparrow\"}","bird":["White-crowned Sparrow"],"family":["New World Sparrows and Allies"],"class":["766"],"trial_type":"image-multi-choice","trial_index":83,"time_elapsed":643570,"internal_node_id":"0.0-1.0-82.0"},{"rt":6019,"responses":"{\"Q0\":\"Black-and-white Warbler\"}","bird":["Magnolia Warbler"],"family":["Wood-Warblers"],"class":["758"],"trial_type":"image-multi-choice","trial_index":84,"time_elapsed":650600,"internal_node_id":"0.0-1.0-83.0"},{"rt":2906,"responses":"{\"Q0\":\"Yellow Warbler\"}","bird":["Yellow Warbler"],"family":["Wood-Warblers"],"class":["875"],"trial_type":"image-multi-choice","trial_index":85,"time_elapsed":654520,"internal_node_id":"0.0-1.0-84.0"},{"rt":3587,"responses":"{\"Q0\":\"Lark Sparrow\"}","bird":["Lark Sparrow"],"family":["New World Sparrows and Allies"],"class":["899"],"trial_type":"image-multi-choice","trial_index":86,"time_elapsed":659126,"internal_node_id":"0.0-1.0-85.0"},{"rt":4824,"responses":"{\"Q0\":\"Song Sparrow\"}","bird":["Lincoln's Sparrow"],"family":["New World Sparrows and Allies"],"class":["903"],"trial_type":"image-multi-choice","trial_index":87,"time_elapsed":664966,"internal_node_id":"0.0-1.0-86.0"},{"rt":9097,"responses":"{\"Q0\":\"Magnolia Warbler\"}","bird":["Black-and-white Warbler"],"family":["Wood-Warblers"],"class":["864"],"trial_type":"image-multi-choice","trial_index":88,"time_elapsed":675079,"internal_node_id":"0.0-1.0-87.0"},{"rt":4621,"responses":"{\"Q0\":\"White-crowned Sparrow\"}","bird":["White-crowned Sparrow"],"family":["New World Sparrows and Allies"],"class":["766"],"trial_type":"image-multi-choice","trial_index":89,"time_elapsed":680714,"internal_node_id":"0.0-1.0-88.0"},{"rt":5797,"responses":"{\"Q0\":\"Black-and-white Warbler\"}","bird":["Townsend's Warbler"],"family":["Wood-Warblers"],"class":["881"],"trial_type":"image-multi-choice","trial_index":90,"time_elapsed":687524,"internal_node_id":"0.0-1.0-89.0"},{"rt":2862,"responses":"{\"Q0\":\"White-throated Sparrow\"}","bird":["White-throated Sparrow"],"family":["New World Sparrows and Allies"],"class":["764"],"trial_type":"image-multi-choice","trial_index":91,"time_elapsed":691400,"internal_node_id":"0.0-1.0-90.0"},{"rt":3244,"responses":"{\"Q0\":\"Black-and-white Warbler\"}","bird":["Magnolia Warbler"],"family":["Wood-Warblers"],"class":["758"],"trial_type":"image-multi-choice","trial_index":92,"time_elapsed":695661,"internal_node_id":"0.0-1.0-91.0"},{"rt":5078,"responses":"{\"Q0\":\"Vesper Sparrow\"}","bird":["Lincoln's Sparrow"],"family":["New World Sparrows and Allies"],"class":["903"],"trial_type":"image-multi-choice","trial_index":93,"time_elapsed":701751,"internal_node_id":"0.0-1.0-92.0"},{"rt":10385,"responses":"{\"Q0\":\"Blackburnian Warbler\"}","bird":["Blackburnian Warbler"],"family":["Wood-Warblers"],"class":["874"],"trial_type":"image-multi-choice","trial_index":94,"time_elapsed":713149,"internal_node_id":"0.0-1.0-93.0"},{"rt":3379,"responses":"{\"Q0\":\"Lark Sparrow\"}","bird":["Vesper Sparrow"],"family":["New World Sparrows and Allies"],"class":["898"],"trial_type":"image-multi-choice","trial_index":95,"time_elapsed":717544,"internal_node_id":"0.0-1.0-94.0"},{"rt":5524,"responses":"{\"Q0\":\"Lark Sparrow\"}","bird":["Lark Sparrow"],"family":["New World Sparrows and Allies"],"class":["899"],"trial_type":"image-multi-choice","trial_index":96,"time_elapsed":724080,"internal_node_id":"0.0-1.0-95.0"},{"rt":5107,"responses":"{\"Q0\":\"White-throated Sparrow\"}","bird":["Swamp Sparrow"],"family":["New World Sparrows and Allies"],"class":["904"],"trial_type":"image-multi-choice","trial_index":97,"time_elapsed":730204,"internal_node_id":"0.0-1.0-96.0"},{"rt":7210,"responses":"{\"Q0\":\"Northern Waterthrush\"}","bird":["Northern Waterthrush"],"family":["Wood-Warblers"],"class":["862"],"trial_type":"image-multi-choice","trial_index":98,"time_elapsed":738426,"internal_node_id":"0.0-1.0-97.0"},{"rt":3605,"responses":"{\"Q0\":\"Ovenbird\"}","bird":["Ovenbird"],"family":["Wood-Warblers"],"class":["860"],"trial_type":"image-multi-choice","trial_index":99,"time_elapsed":743047,"internal_node_id":"0.0-1.0-98.0"},{"rt":3340,"responses":"{\"Q0\":\"White-throated Sparrow\"}","bird":["White-throated Sparrow"],"family":["New World Sparrows and Allies"],"class":["764"],"trial_type":"image-multi-choice","trial_index":100,"time_elapsed":747402,"internal_node_id":"0.0-1.0-99.0"},{"rt":3457,"responses":"{\"Q0\":\"Orange-crowned Warbler\"}","bird":["Nashville Warbler"],"family":["Wood-Warblers"],"class":["868"],"trial_type":"image-multi-choice","trial_index":101,"time_elapsed":751871,"internal_node_id":"0.0-1.0-100.0"},{"rt":3668,"responses":"{\"Q0\":\"Black-and-white Warbler\"}","bird":["Magnolia Warbler"],"family":["Wood-Warblers"],"class":["758"],"trial_type":"image-multi-choice","trial_index":102,"time_elapsed":756557,"internal_node_id":"0.0-1.0-101.0"},{"rt":3381,"responses":"{\"Q0\":\"White-throated Sparrow\"}","bird":["Swamp Sparrow"],"family":["New World Sparrows and Allies"],"class":["904"],"trial_type":"image-multi-choice","trial_index":103,"time_elapsed":760953,"internal_node_id":"0.0-1.0-102.0"},{"rt":3039,"responses":"{\"Q0\":\"Black-and-white Warbler\"}","bird":["Blackburnian Warbler"],"family":["Wood-Warblers"],"class":["874"],"trial_type":"image-multi-choice","trial_index":104,"time_elapsed":765007,"internal_node_id":"0.0-1.0-103.0"},{"rt":4390,"responses":"{\"Q0\":\"Northern Waterthrush\"}","bird":["Northern Waterthrush"],"family":["Wood-Warblers"],"class":["862"],"trial_type":"image-multi-choice","trial_index":105,"time_elapsed":770410,"internal_node_id":"0.0-1.0-104.0"},{"rt":4606,"responses":"{\"Q0\":\"Townsend's Warbler\"}","bird":["Swamp Sparrow"],"family":["New World Sparrows and Allies"],"class":["904"],"trial_type":"image-multi-choice","trial_index":106,"time_elapsed":776028,"internal_node_id":"0.0-1.0-105.0"},{"rt":6695,"responses":"{\"Q0\":\"Vesper Sparrow\"}","bird":["Song Sparrow"],"family":["New World Sparrows and Allies"],"class":["902"],"trial_type":"image-multi-choice","trial_index":107,"time_elapsed":783740,"internal_node_id":"0.0-1.0-106.0"},{"rt":8028,"responses":"{\"Q0\":\"Magnolia Warbler\"}","bird":["Black-and-white Warbler"],"family":["Wood-Warblers"],"class":["864"],"trial_type":"image-multi-choice","trial_index":108,"time_elapsed":792780,"internal_node_id":"0.0-1.0-107.0"},{"rt":3856,"responses":"{\"Q0\":\"Black-and-white Warbler\"}","bird":["Blackburnian Warbler"],"family":["Wood-Warblers"],"class":["874"],"trial_type":"image-multi-choice","trial_index":109,"time_elapsed":797651,"internal_node_id":"0.0-1.0-108.0"},{"rt":4372,"responses":"{\"Q0\":\"Nashville Warbler\"}","bird":["Nashville Warbler"],"family":["Wood-Warblers"],"class":["868"],"trial_type":"image-multi-choice","trial_index":110,"time_elapsed":803042,"internal_node_id":"0.0-1.0-109.0"},{"rt":3131,"responses":"{\"Q0\":\"Lark Sparrow\"}","bird":["Chipping Sparrow"],"family":["New World Sparrows and Allies"],"class":["769"],"trial_type":"image-multi-choice","trial_index":111,"time_elapsed":807188,"internal_node_id":"0.0-1.0-110.0"},{"rt":3278,"responses":"{\"Q0\":\"White-throated Sparrow\"}","bird":["American Tree Sparrow"],"family":["New World Sparrows and Allies"],"class":["894"],"trial_type":"image-multi-choice","trial_index":112,"time_elapsed":811480,"internal_node_id":"0.0-1.0-111.0"},{"rt":6541,"responses":"{\"Q0\":\"Ovenbird\"}","bird":["Northern Waterthrush"],"family":["Wood-Warblers"],"class":["862"],"trial_type":"image-multi-choice","trial_index":113,"time_elapsed":819032,"internal_node_id":"0.0-1.0-112.0"},{"rt":3712,"responses":"{\"Q0\":\"Yellow Warbler\"}","bird":["Yellow Warbler"],"family":["Wood-Warblers"],"class":["875"],"trial_type":"image-multi-choice","trial_index":114,"time_elapsed":823756,"internal_node_id":"0.0-1.0-113.0"},{"rt":4347,"responses":"{\"Q0\":\"Orange-crowned Warbler\"}","bird":["Tennessee Warbler"],"family":["Wood-Warblers"],"class":["866"],"trial_type":"image-multi-choice","trial_index":115,"time_elapsed":829116,"internal_node_id":"0.0-1.0-114.0"},{"rt":5279,"responses":"{\"Q0\":\"Lincoln's Sparrow\"}","bird":["Lincoln's Sparrow"],"family":["New World Sparrows and Allies"],"class":["903"],"trial_type":"image-multi-choice","trial_index":116,"time_elapsed":835405,"internal_node_id":"0.0-1.0-115.0"},{"rt":5544,"responses":"{\"Q0\":\"Black-and-white Warbler\"}","bird":["Black-and-white Warbler"],"family":["Wood-Warblers"],"class":["864"],"trial_type":"image-multi-choice","trial_index":117,"time_elapsed":841966,"internal_node_id":"0.0-1.0-116.0"},{"rt":6456,"responses":"{\"Q0\":\"Chipping Sparrow\"}","bird":["Song Sparrow"],"family":["New World Sparrows and Allies"],"class":["902"],"trial_type":"image-multi-choice","trial_index":118,"time_elapsed":849435,"internal_node_id":"0.0-1.0-117.0"},{"rt":5418,"responses":"{\"Q0\":\"Song Sparrow\"}","bird":["Lincoln's Sparrow"],"family":["New World Sparrows and Allies"],"class":["903"],"trial_type":"image-multi-choice","trial_index":119,"time_elapsed":855865,"internal_node_id":"0.0-1.0-118.0"},{"rt":3264,"responses":"{\"Q0\":\"Blackburnian Warbler\"}","bird":["Blackburnian Warbler"],"family":["Wood-Warblers"],"class":["874"],"trial_type":"image-multi-choice","trial_index":120,"time_elapsed":871685,"internal_node_id":"0.0-1.0-119.0"},{"rt":8561,"responses":"{\"Q0\":\"Nashville Warbler\"}","bird":["Nashville Warbler"],"family":["Wood-Warblers"],"class":["868"],"trial_type":"image-multi-choice","trial_index":121,"time_elapsed":881262,"internal_node_id":"0.0-1.0-120.0"},{"rt":4600,"responses":"{\"Q0\":\"Song Sparrow\"}","bird":["Vesper Sparrow"],"family":["New World Sparrows and Allies"],"class":["898"],"trial_type":"image-multi-choice","trial_index":122,"time_elapsed":886874,"internal_node_id":"0.0-1.0-121.0"},{"rt":4333,"responses":"{\"Q0\":\"Black-and-white Warbler\"}","bird":["Townsend's Warbler"],"family":["Wood-Warblers"],"class":["881"],"trial_type":"image-multi-choice","trial_index":123,"time_elapsed":892221,"internal_node_id":"0.0-1.0-122.0"},{"rt":6418,"responses":"{\"Q0\":\"Lincoln's Sparrow\"}","bird":["Song Sparrow"],"family":["New World Sparrows and Allies"],"class":["902"],"trial_type":"image-multi-choice","trial_index":124,"time_elapsed":899656,"internal_node_id":"0.0-1.0-123.0"},{"rt":3000,"responses":"{\"Q0\":\"White-throated Sparrow\"}","bird":["White-throated Sparrow"],"family":["New World Sparrows and Allies"],"class":["764"],"trial_type":"image-multi-choice","trial_index":125,"time_elapsed":903669,"internal_node_id":"0.0-1.0-124.0"},{"rt":4505,"responses":"{\"Q0\":\"Orange-crowned Warbler\"}","bird":["Nashville Warbler"],"family":["Wood-Warblers"],"class":["868"],"trial_type":"image-multi-choice","trial_index":126,"time_elapsed":909184,"internal_node_id":"0.0-1.0-125.0"},{"rt":4662,"responses":"{\"Q0\":\"Fox Sparrow\"}","bird":["Fox Sparrow"],"family":["New World Sparrows and Allies"],"class":["901"],"trial_type":"image-multi-choice","trial_index":127,"time_elapsed":914857,"internal_node_id":"0.0-1.0-126.0"},{"rt":7556,"responses":"{\"Q0\":\"Blackburnian Warbler\"}","bird":["Magnolia Warbler"],"family":["Wood-Warblers"],"class":["758"],"trial_type":"image-multi-choice","trial_index":128,"time_elapsed":923426,"internal_node_id":"0.0-1.0-127.0"},{"rt":4569,"responses":"{\"Q0\":\"Nashville Warbler\"}","bird":["Nashville Warbler"],"family":["Wood-Warblers"],"class":["868"],"trial_type":"image-multi-choice","trial_index":129,"time_elapsed":929011,"internal_node_id":"0.0-1.0-128.0"},{"rt":2924,"responses":"{\"Q0\":\"Lark Sparrow\"}","bird":["Swamp Sparrow"],"family":["New World Sparrows and Allies"],"class":["904"],"trial_type":"image-multi-choice","trial_index":130,"time_elapsed":932945,"internal_node_id":"0.0-1.0-129.0"},{"rt":3230,"responses":"{\"Q0\":\"White-throated Sparrow\"}","bird":["White-throated Sparrow"],"family":["New World Sparrows and Allies"],"class":["764"],"trial_type":"image-multi-choice","trial_index":131,"time_elapsed":937189,"internal_node_id":"0.0-1.0-130.0"},{"rt":5120,"responses":"{\"Q0\":\"White-throated Sparrow\"}","bird":["Song Sparrow"],"family":["New World Sparrows and Allies"],"class":["902"],"trial_type":"image-multi-choice","trial_index":132,"time_elapsed":943325,"internal_node_id":"0.0-1.0-131.0"},{"rt":3429,"responses":"{\"Q0\":\"Yellow Warbler\"}","bird":["Yellow Warbler"],"family":["Wood-Warblers"],"class":["875"],"trial_type":"image-multi-choice","trial_index":133,"time_elapsed":947763,"internal_node_id":"0.0-1.0-132.0"},{"rt":8435,"responses":"{\"Q0\":\"Ovenbird\"}","bird":["Townsend's Warbler"],"family":["Wood-Warblers"],"class":["881"],"trial_type":"image-multi-choice","trial_index":134,"time_elapsed":957213,"internal_node_id":"0.0-1.0-133.0"},{"rt":4035,"responses":"{\"Q0\":\"Fox Sparrow\"}","bird":["Fox Sparrow"],"family":["New World Sparrows and Allies"],"class":["901"],"trial_type":"image-multi-choice","trial_index":135,"time_elapsed":962261,"internal_node_id":"0.0-1.0-134.0"},{"rt":3276,"responses":"{\"Q0\":\"White-throated Sparrow\"}","bird":["White-crowned Sparrow"],"family":["New World Sparrows and Allies"],"class":["766"],"trial_type":"image-multi-choice","trial_index":136,"time_elapsed":966549,"internal_node_id":"0.0-1.0-135.0"},{"rt":4360,"responses":"{\"Q0\":\"Magnolia Warbler\"}","bird":["Magnolia Warbler"],"family":["Wood-Warblers"],"class":["758"],"trial_type":"image-multi-choice","trial_index":137,"time_elapsed":971923,"internal_node_id":"0.0-1.0-136.0"},{"rt":4867,"responses":"{\"Q0\":\"Black-and-white Warbler\"}","bird":["Blackburnian Warbler"],"family":["Wood-Warblers"],"class":["874"],"trial_type":"image-multi-choice","trial_index":138,"time_elapsed":977805,"internal_node_id":"0.0-1.0-137.0"},{"rt":6006,"responses":"{\"Q0\":\"Magnolia Warbler\"}","bird":["Magnolia Warbler"],"family":["Wood-Warblers"],"class":["758"],"trial_type":"image-multi-choice","trial_index":139,"time_elapsed":984823,"internal_node_id":"0.0-1.0-138.0"},{"rt":3984,"responses":"{\"Q0\":\"White-throated Sparrow\"}","bird":["Chipping Sparrow"],"family":["New World Sparrows and Allies"],"class":["769"],"trial_type":"image-multi-choice","trial_index":140,"time_elapsed":989817,"internal_node_id":"0.0-1.0-139.0"},{"rt":4446,"responses":"{\"Q0\":\"Chipping Sparrow\"}","bird":["American Tree Sparrow"],"family":["New World Sparrows and Allies"],"class":["894"],"trial_type":"image-multi-choice","trial_index":141,"time_elapsed":995276,"internal_node_id":"0.0-1.0-140.0"},{"rt":2121,"responses":"{\"Q0\":\"Yellow Warbler\"}","bird":["Orange-crowned Warbler"],"family":["Wood-Warblers"],"class":["867"],"trial_type":"image-multi-choice","trial_index":142,"time_elapsed":998410,"internal_node_id":"0.0-1.0-141.0"},{"rt":3275,"responses":"{\"Q0\":\"Fox Sparrow\"}","bird":["Fox Sparrow"],"family":["New World Sparrows and Allies"],"class":["901"],"trial_type":"image-multi-choice","trial_index":143,"time_elapsed":1002700,"internal_node_id":"0.0-1.0-142.0"},{"rt":1924,"responses":"{\"Q0\":\"Yellow Warbler\"}","bird":["Yellow Warbler"],"family":["Wood-Warblers"],"class":["875"],"trial_type":"image-multi-choice","trial_index":144,"time_elapsed":1005640,"internal_node_id":"0.0-1.0-143.0"},{"rt":4491,"responses":"{\"Q0\":\"American Tree Sparrow\"}","bird":["American Tree Sparrow"],"family":["New World Sparrows and Allies"],"class":["894"],"trial_type":"image-multi-choice","trial_index":145,"time_elapsed":1011146,"internal_node_id":"0.0-1.0-144.0"},{"rt":5165,"responses":"{\"Q0\":\"Lark Sparrow\"}","bird":["Swamp Sparrow"],"family":["New World Sparrows and Allies"],"class":["904"],"trial_type":"image-multi-choice","trial_index":146,"time_elapsed":1017323,"internal_node_id":"0.0-1.0-145.0"},{"rt":2680,"responses":"{\"Q0\":\"White-throated Sparrow\"}","bird":["Lark Sparrow"],"family":["New World Sparrows and Allies"],"class":["899"],"trial_type":"image-multi-choice","trial_index":147,"time_elapsed":1021016,"internal_node_id":"0.0-1.0-146.0"},{"rt":5279,"responses":"{\"Q0\":\"Lincoln's Sparrow\"}","bird":["Vesper Sparrow"],"family":["New World Sparrows and Allies"],"class":["898"],"trial_type":"image-multi-choice","trial_index":148,"time_elapsed":1027309,"internal_node_id":"0.0-1.0-147.0"},{"rt":3570,"responses":"{\"Q0\":\"Fox Sparrow\"}","bird":["Fox Sparrow"],"family":["New World Sparrows and Allies"],"class":["901"],"trial_type":"image-multi-choice","trial_index":149,"time_elapsed":1031897,"internal_node_id":"0.0-1.0-148.0"},{"rt":2443,"responses":"{\"Q0\":\"White-throated Sparrow\"}","bird":["Song Sparrow"],"family":["New World Sparrows and Allies"],"class":["902"],"trial_type":"image-multi-choice","trial_index":150,"time_elapsed":1035354,"internal_node_id":"0.0-1.0-149.0"},{"rt":10368,"responses":"{\"Q0\":\"Tennessee Warbler\"}","bird":["Blackburnian Warbler"],"family":["Wood-Warblers"],"class":["874"],"trial_type":"image-multi-choice","trial_index":151,"time_elapsed":1046735,"internal_node_id":"0.0-1.0-150.0"},{"rt":2332,"responses":"{\"Q0\":\"Yellow Warbler\"}","bird":["Orange-crowned Warbler"],"family":["Wood-Warblers"],"class":["867"],"trial_type":"image-multi-choice","trial_index":152,"time_elapsed":1050080,"internal_node_id":"0.0-1.0-151.0"},{"rt":3419,"responses":"{\"Q0\":\"Fox Sparrow\"}","bird":["Fox Sparrow"],"family":["New World Sparrows and Allies"],"class":["901"],"trial_type":"image-multi-choice","trial_index":153,"time_elapsed":1054513,"internal_node_id":"0.0-1.0-152.0"},{"rt":3966,"responses":"{\"Q0\":\"Orange-crowned Warbler\"}","bird":["Orange-crowned Warbler"],"family":["Wood-Warblers"],"class":["867"],"trial_type":"image-multi-choice","trial_index":154,"time_elapsed":1059495,"internal_node_id":"0.0-1.0-153.0"},{"rt":4551,"responses":"{\"Q0\":\"Black-and-white Warbler\"}","bird":["Townsend's Warbler"],"family":["Wood-Warblers"],"class":["881"],"trial_type":"image-multi-choice","trial_index":155,"time_elapsed":1065062,"internal_node_id":"0.0-1.0-154.0"},{"rt":3916,"responses":"{\"Q0\":\"Ovenbird\"}","bird":["Ovenbird"],"family":["Wood-Warblers"],"class":["860"],"trial_type":"image-multi-choice","trial_index":156,"time_elapsed":1069993,"internal_node_id":"0.0-1.0-155.0"},{"rt":4951,"responses":"{\"Q0\":\"Orange-crowned Warbler\"}","bird":["Nashville Warbler"],"family":["Wood-Warblers"],"class":["868"],"trial_type":"image-multi-choice","trial_index":157,"time_elapsed":1075958,"internal_node_id":"0.0-1.0-156.0"},{"rt":7264,"responses":"{\"Q0\":\"White-crowned Sparrow\"}","bird":["Song Sparrow"],"family":["New World Sparrows and Allies"],"class":["902"],"trial_type":"image-multi-choice","trial_index":158,"time_elapsed":1084237,"internal_node_id":"0.0-1.0-157.0"},{"rt":2453,"responses":"{\"Q0\":\"Yellow Warbler\"}","bird":["Yellow Warbler"],"family":["Wood-Warblers"],"class":["875"],"trial_type":"image-multi-choice","trial_index":159,"time_elapsed":1087702,"internal_node_id":"0.0-1.0-158.0"},{"rt":2996,"responses":"{\"Q0\":\"Fox Sparrow\"}","bird":["Fox Sparrow"],"family":["New World Sparrows and Allies"],"class":["901"],"trial_type":"image-multi-choice","trial_index":160,"time_elapsed":1091711,"internal_node_id":"0.0-1.0-159.0"},{"rt":7516,"responses":"{\"Q0\":\"Black-and-white Warbler\"}","bird":["Black-and-white Warbler"],"family":["Wood-Warblers"],"class":["864"],"trial_type":"image-multi-choice","trial_index":161,"time_elapsed":1100240,"internal_node_id":"0.0-1.0-160.0"},{"rt":5710,"responses":"{\"Q0\":\"Orange-crowned Warbler\"}","bird":["Orange-crowned Warbler"],"family":["Wood-Warblers"],"class":["867"],"trial_type":"image-multi-choice","trial_index":162,"time_elapsed":1107007,"internal_node_id":"0.0-1.0-161.0"},{"rt":6460,"responses":"{\"Q0\":\"American Tree Sparrow\"}","bird":["American Tree Sparrow"],"family":["New World Sparrows and Allies"],"class":["894"],"trial_type":"image-multi-choice","trial_index":163,"time_elapsed":1114480,"internal_node_id":"0.0-1.0-162.0"},{"rt":7224,"responses":"{\"Q0\":\"Tennessee Warbler\"}","bird":["Townsend's Warbler"],"family":["Wood-Warblers"],"class":["881"],"trial_type":"image-multi-choice","trial_index":164,"time_elapsed":1122717,"internal_node_id":"0.0-1.0-163.0"},{"rt":4330,"responses":"{\"Q0\":\"Swamp Sparrow\"}","bird":["Song Sparrow"],"family":["New World Sparrows and Allies"],"class":["902"],"trial_type":"image-multi-choice","trial_index":165,"time_elapsed":1128063,"internal_node_id":"0.0-1.0-164.0"},{"rt":3377,"responses":"{\"Q0\":\"Orange-crowned Warbler\"}","bird":["Nashville Warbler"],"family":["Wood-Warblers"],"class":["868"],"trial_type":"image-multi-choice","trial_index":166,"time_elapsed":1132455,"internal_node_id":"0.0-1.0-165.0"},{"rt":3185,"responses":"{\"Q0\":\"Orange-crowned Warbler\"}","bird":["Tennessee Warbler"],"family":["Wood-Warblers"],"class":["866"],"trial_type":"image-multi-choice","trial_index":167,"time_elapsed":1136654,"internal_node_id":"0.0-1.0-166.0"},{"rt":6825,"responses":"{\"Q0\":\"White-crowned Sparrow\"}","bird":["Chipping Sparrow"],"family":["New World Sparrows and Allies"],"class":["769"],"trial_type":"image-multi-choice","trial_index":168,"time_elapsed":1144493,"internal_node_id":"0.0-1.0-167.0"},{"rt":3067,"responses":"{\"Q0\":\"Ovenbird\"}","bird":["Ovenbird"],"family":["Wood-Warblers"],"class":["860"],"trial_type":"image-multi-choice","trial_index":169,"time_elapsed":1148573,"internal_node_id":"0.0-1.0-168.0"},{"rt":2506,"responses":"{\"Q0\":\"White-throated Sparrow\"}","bird":["White-throated Sparrow"],"family":["New World Sparrows and Allies"],"class":["764"],"trial_type":"image-multi-choice","trial_index":170,"time_elapsed":1152096,"internal_node_id":"0.0-1.0-169.0"},{"rt":3158,"responses":"{\"Q0\":\"Fox Sparrow\"}","bird":["Fox Sparrow"],"family":["New World Sparrows and Allies"],"class":["901"],"trial_type":"image-multi-choice","trial_index":171,"time_elapsed":1156265,"internal_node_id":"0.0-1.0-170.0"},{"rt":3446,"responses":"{\"Q0\":\"Black-and-white Warbler\"}","bird":["Blackburnian Warbler"],"family":["Wood-Warblers"],"class":["874"],"trial_type":"image-multi-choice","trial_index":172,"time_elapsed":1160727,"internal_node_id":"0.0-1.0-171.0"},{"rt":3586,"responses":"{\"Q0\":\"American Tree Sparrow\"}","bird":["American Tree Sparrow"],"family":["New World Sparrows and Allies"],"class":["894"],"trial_type":"image-multi-choice","trial_index":173,"time_elapsed":1165329,"internal_node_id":"0.0-1.0-172.0"},{"rt":6530,"responses":"{\"Q0\":\"White-throated Sparrow\"}","bird":["Swamp Sparrow"],"family":["New World Sparrows and Allies"],"class":["904"],"trial_type":"image-multi-choice","trial_index":174,"time_elapsed":1172871,"internal_node_id":"0.0-1.0-173.0"},{"rt":5673,"responses":"{\"Q0\":\"Tennessee Warbler\"}","bird":["Townsend's Warbler"],"family":["Wood-Warblers"],"class":["881"],"trial_type":"image-multi-choice","trial_index":175,"time_elapsed":1179561,"internal_node_id":"0.0-1.0-174.0"},{"rt":4519,"responses":"{\"Q0\":\"Townsend's Warbler\"}","bird":["Tennessee Warbler"],"family":["Wood-Warblers"],"class":["866"],"trial_type":"image-multi-choice","trial_index":176,"time_elapsed":1185093,"internal_node_id":"0.0-1.0-175.0"},{"rt":8190,"responses":"{\"Q0\":\"Northern Waterthrush\"}","bird":["Northern Waterthrush"],"family":["Wood-Warblers"],"class":["862"],"trial_type":"image-multi-choice","trial_index":177,"time_elapsed":1194300,"internal_node_id":"0.0-1.0-176.0"},{"rt":3170,"responses":"{\"Q0\":\"White-throated Sparrow\"}","bird":["Swamp Sparrow"],"family":["New World Sparrows and Allies"],"class":["904"],"trial_type":"image-multi-choice","trial_index":178,"time_elapsed":1198485,"internal_node_id":"0.0-1.0-177.0"},{"rt":3621,"responses":"{\"Q0\":\"Fox Sparrow\"}","bird":["Fox Sparrow"],"family":["New World Sparrows and Allies"],"class":["901"],"trial_type":"image-multi-choice","trial_index":179,"time_elapsed":1203120,"internal_node_id":"0.0-1.0-178.0"},{"rt":4613,"responses":"{\"Q0\":\"American Tree Sparrow\"}","bird":["American Tree Sparrow"],"family":["New World Sparrows and Allies"],"class":["894"],"trial_type":"image-multi-choice","trial_index":180,"time_elapsed":1216510,"internal_node_id":"0.0-1.0-179.0"},{"rt":2753,"responses":"{\"Q0\":\"Fox Sparrow\"}","bird":["Fox Sparrow"],"family":["New World Sparrows and Allies"],"class":["901"],"trial_type":"image-multi-choice","trial_index":181,"time_elapsed":1220273,"internal_node_id":"0.0-1.0-180.0"},{"rt":4327,"responses":"{\"Q0\":\"Lark Sparrow\"}","bird":["Vesper Sparrow"],"family":["New World Sparrows and Allies"],"class":["898"],"trial_type":"image-multi-choice","trial_index":182,"time_elapsed":1225615,"internal_node_id":"0.0-1.0-181.0"},{"rt":3898,"responses":"{\"Q0\":\"White-throated Sparrow\"}","bird":["Song Sparrow"],"family":["New World Sparrows and Allies"],"class":["902"],"trial_type":"image-multi-choice","trial_index":183,"time_elapsed":1230530,"internal_node_id":"0.0-1.0-182.0"},{"rt":4913,"responses":"{\"Q0\":\"Black-and-white Warbler\"}","bird":["Blackburnian Warbler"],"family":["Wood-Warblers"],"class":["874"],"trial_type":"image-multi-choice","trial_index":184,"time_elapsed":1236459,"internal_node_id":"0.0-1.0-183.0"},{"rt":3658,"responses":"{\"Q0\":\"White-crowned Sparrow\"}","bird":["White-crowned Sparrow"],"family":["New World Sparrows and Allies"],"class":["766"],"trial_type":"image-multi-choice","trial_index":185,"time_elapsed":1241130,"internal_node_id":"0.0-1.0-184.0"},{"rt":5999,"responses":"{\"Q0\":\"American Tree Sparrow\"}","bird":["American Tree Sparrow"],"family":["New World Sparrows and Allies"],"class":["894"],"trial_type":"image-multi-choice","trial_index":186,"time_elapsed":1248144,"internal_node_id":"0.0-1.0-185.0"},{"rt":4149,"responses":"{\"Q0\":\"Black-and-white Warbler\"}","bird":["Black-and-white Warbler"],"family":["Wood-Warblers"],"class":["864"],"trial_type":"image-multi-choice","trial_index":187,"time_elapsed":1253308,"internal_node_id":"0.0-1.0-186.0"},{"rt":3569,"responses":"{\"Q0\":\"Lark Sparrow\"}","bird":["Lark Sparrow"],"family":["New World Sparrows and Allies"],"class":["899"],"trial_type":"image-multi-choice","trial_index":188,"time_elapsed":1257891,"internal_node_id":"0.0-1.0-187.0"},{"rt":3522,"responses":"{\"Q0\":\"Orange-crowned Warbler\"}","bird":["Nashville Warbler"],"family":["Wood-Warblers"],"class":["868"],"trial_type":"image-multi-choice","trial_index":189,"time_elapsed":1262424,"internal_node_id":"0.0-1.0-188.0"},{"rt":4173,"responses":"{\"Q0\":\"Northern Waterthrush\"}","bird":["Northern Waterthrush"],"family":["Wood-Warblers"],"class":["862"],"trial_type":"image-multi-choice","trial_index":190,"time_elapsed":1267611,"internal_node_id":"0.0-1.0-189.0"},{"rt":3556,"responses":"{\"Q0\":\"Orange-crowned Warbler\"}","bird":["Tennessee Warbler"],"family":["Wood-Warblers"],"class":["866"],"trial_type":"image-multi-choice","trial_index":191,"time_elapsed":1272181,"internal_node_id":"0.0-1.0-190.0"},{"rt":4679,"responses":"{\"Q0\":\"Nashville Warbler\"}","bird":["Nashville Warbler"],"family":["Wood-Warblers"],"class":["868"],"trial_type":"image-multi-choice","trial_index":192,"time_elapsed":1277875,"internal_node_id":"0.0-1.0-191.0"},{"rt":3408,"responses":"{\"Q0\":\"Fox Sparrow\"}","bird":["Fox Sparrow"],"family":["New World Sparrows and Allies"],"class":["901"],"trial_type":"image-multi-choice","trial_index":193,"time_elapsed":1282296,"internal_node_id":"0.0-1.0-192.0"},{"rt":9108,"responses":"{\"Q0\":\"Black-and-white Warbler\"}","bird":["Blackburnian Warbler"],"family":["Wood-Warblers"],"class":["874"],"trial_type":"image-multi-choice","trial_index":194,"time_elapsed":1292420,"internal_node_id":"0.0-1.0-193.0"},{"rt":7493,"responses":"{\"Q0\":\"White-throated Sparrow\"}","bird":["Swamp Sparrow"],"family":["New World Sparrows and Allies"],"class":["904"],"trial_type":"image-multi-choice","trial_index":195,"time_elapsed":1300930,"internal_node_id":"0.0-1.0-194.0"},{"rt":5718,"responses":"{\"Q0\":\"Magnolia Warbler\"}","bird":["Townsend's Warbler"],"family":["Wood-Warblers"],"class":["881"],"trial_type":"image-multi-choice","trial_index":196,"time_elapsed":1307661,"internal_node_id":"0.0-1.0-195.0"},{"rt":6077,"responses":"{\"Q0\":\"Orange-crowned Warbler\"}","bird":["Tennessee Warbler"],"family":["Wood-Warblers"],"class":["866"],"trial_type":"image-multi-choice","trial_index":197,"time_elapsed":1314749,"internal_node_id":"0.0-1.0-196.0"},{"rt":5880,"responses":"{\"Q0\":\"White-crowned Sparrow\"}","bird":["White-crowned Sparrow"],"family":["New World Sparrows and Allies"],"class":["766"],"trial_type":"image-multi-choice","trial_index":198,"time_elapsed":1321643,"internal_node_id":"0.0-1.0-197.0"},{"rt":4091,"responses":"{\"Q0\":\"Ovenbird\"}","bird":["Ovenbird"],"family":["Wood-Warblers"],"class":["860"],"trial_type":"image-multi-choice","trial_index":199,"time_elapsed":1326746,"internal_node_id":"0.0-1.0-198.0"},{"rt":3728,"responses":"{\"Q0\":\"Vesper Sparrow\"}","bird":["Vesper Sparrow"],"family":["New World Sparrows and Allies"],"class":["898"],"trial_type":"image-multi-choice","trial_index":200,"time_elapsed":1331489,"internal_node_id":"0.0-1.0-199.0"},{"rt":3723,"responses":"{\"Q0\":\"Black-and-white Warbler\"}","bird":["Blackburnian Warbler"],"family":["Wood-Warblers"],"class":["874"],"trial_type":"image-multi-choice","trial_index":201,"time_elapsed":1336227,"internal_node_id":"0.0-1.0-200.0"},{"rt":5124,"responses":"{\"Q0\":\"Chipping Sparrow\"}","bird":["Chipping Sparrow"],"family":["New World Sparrows and Allies"],"class":["769"],"trial_type":"image-multi-choice","trial_index":202,"time_elapsed":1342364,"internal_node_id":"0.0-1.0-201.0"},{"rt":8176,"responses":"{\"Q0\":\"Lincoln's Sparrow\"}","bird":["Vesper Sparrow"],"family":["New World Sparrows and Allies"],"class":["898"],"trial_type":"image-multi-choice","trial_index":203,"time_elapsed":1351552,"internal_node_id":"0.0-1.0-202.0"},{"rt":4044,"responses":"{\"Q0\":\"Yellow Warbler\"}","bird":["Yellow Warbler"],"family":["Wood-Warblers"],"class":["875"],"trial_type":"image-multi-choice","trial_index":204,"time_elapsed":1356611,"internal_node_id":"0.0-1.0-203.0"},{"rt":5745,"responses":"{\"Q0\":\"Nashville Warbler\"}","bird":["Orange-crowned Warbler"],"family":["Wood-Warblers"],"class":["867"],"trial_type":"image-multi-choice","trial_index":205,"time_elapsed":1363371,"internal_node_id":"0.0-1.0-204.0"},{"rt":2572,"responses":"{\"Q0\":\"White-throated Sparrow\"}","bird":["White-throated Sparrow"],"family":["New World Sparrows and Allies"],"class":["764"],"trial_type":"image-multi-choice","trial_index":206,"time_elapsed":1366960,"internal_node_id":"0.0-1.0-205.0"},{"rt":3397,"responses":"{\"Q0\":\"American Tree Sparrow\"}","bird":["American Tree Sparrow"],"family":["New World Sparrows and Allies"],"class":["894"],"trial_type":"image-multi-choice","trial_index":207,"time_elapsed":1371370,"internal_node_id":"0.0-1.0-206.0"},{"rt":4439,"responses":"{\"Q0\":\"Nashville Warbler\"}","bird":["Orange-crowned Warbler"],"family":["Wood-Warblers"],"class":["867"],"trial_type":"image-multi-choice","trial_index":208,"time_elapsed":1376823,"internal_node_id":"0.0-1.0-207.0"},{"rt":5413,"responses":"{\"Q0\":\"Black-and-white Warbler\"}","bird":["Black-and-white Warbler"],"family":["Wood-Warblers"],"class":["864"],"trial_type":"image-multi-choice","trial_index":209,"time_elapsed":1383253,"internal_node_id":"0.0-1.0-208.0"},{"rt":2834,"responses":"{\"Q0\":\"Lark Sparrow\"}","bird":["Lark Sparrow"],"family":["New World Sparrows and Allies"],"class":["899"],"trial_type":"image-multi-choice","trial_index":210,"time_elapsed":1387101,"internal_node_id":"0.0-1.0-209.0"},{"rt":5127,"responses":"{\"Q0\":\"American Tree Sparrow\"}","bird":["Chipping Sparrow"],"family":["New World Sparrows and Allies"],"class":["769"],"trial_type":"image-multi-choice","trial_index":211,"time_elapsed":1393242,"internal_node_id":"0.0-1.0-210.0"},{"rt":5778,"responses":"{\"Q0\":\"Yellow Warbler\"}","bird":["Orange-crowned Warbler"],"family":["Wood-Warblers"],"class":["867"],"trial_type":"image-multi-choice","trial_index":212,"time_elapsed":1400036,"internal_node_id":"0.0-1.0-211.0"},{"rt":2335,"responses":"{\"Q0\":\"Yellow Warbler\"}","bird":["Yellow Warbler"],"family":["Wood-Warblers"],"class":["875"],"trial_type":"image-multi-choice","trial_index":213,"time_elapsed":1403387,"internal_node_id":"0.0-1.0-212.0"},{"rt":3165,"responses":"{\"Q0\":\"American Tree Sparrow\"}","bird":["American Tree Sparrow"],"family":["New World Sparrows and Allies"],"class":["894"],"trial_type":"image-multi-choice","trial_index":214,"time_elapsed":1407565,"internal_node_id":"0.0-1.0-213.0"},{"rt":5756,"responses":"{\"Q0\":\"Vesper Sparrow\"}","bird":["Vesper Sparrow"],"family":["New World Sparrows and Allies"],"class":["898"],"trial_type":"image-multi-choice","trial_index":215,"time_elapsed":1414335,"internal_node_id":"0.0-1.0-214.0"},{"rt":5256,"responses":"{\"Q0\":\"Ovenbird\"}","bird":["Ovenbird"],"family":["Wood-Warblers"],"class":["860"],"trial_type":"image-multi-choice","trial_index":216,"time_elapsed":1420601,"internal_node_id":"0.0-1.0-215.0"},{"rt":4488,"responses":"{\"Q0\":\"Lark Sparrow\"}","bird":["Lark Sparrow"],"family":["New World Sparrows and Allies"],"class":["899"],"trial_type":"image-multi-choice","trial_index":217,"time_elapsed":1426106,"internal_node_id":"0.0-1.0-216.0"},{"rt":5140,"responses":"{\"Q0\":\"Song Sparrow\"}","bird":["Lincoln's Sparrow"],"family":["New World Sparrows and Allies"],"class":["903"],"trial_type":"image-multi-choice","trial_index":218,"time_elapsed":1432258,"internal_node_id":"0.0-1.0-217.0"},{"rt":5727,"responses":"{\"Q0\":\"Townsend's Warbler\"}","bird":["Chipping Sparrow"],"family":["New World Sparrows and Allies"],"class":["769"],"trial_type":"image-multi-choice","trial_index":219,"time_elapsed":1438998,"internal_node_id":"0.0-1.0-218.0"},{"rt":5269,"responses":"{\"Q0\":\"Song Sparrow\"}","bird":["Lincoln's Sparrow"],"family":["New World Sparrows and Allies"],"class":["903"],"trial_type":"image-multi-choice","trial_index":220,"time_elapsed":1445280,"internal_node_id":"0.0-1.0-219.0"},{"rt":7638,"responses":"{\"Q0\":\"Northern Waterthrush\"}","bird":["Northern Waterthrush"],"family":["Wood-Warblers"],"class":["862"],"trial_type":"image-multi-choice","trial_index":221,"time_elapsed":1453928,"internal_node_id":"0.0-1.0-220.0"},{"rt":7053,"responses":"{\"Q0\":\"Lincoln's Sparrow\"}","bird":["Chipping Sparrow"],"family":["New World Sparrows and Allies"],"class":["769"],"trial_type":"image-multi-choice","trial_index":222,"time_elapsed":1461997,"internal_node_id":"0.0-1.0-221.0"},{"rt":5835,"responses":"{\"Q0\":\"Vesper Sparrow\"}","bird":["Lincoln's Sparrow"],"family":["New World Sparrows and Allies"],"class":["903"],"trial_type":"image-multi-choice","trial_index":223,"time_elapsed":1468846,"internal_node_id":"0.0-1.0-222.0"},{"rt":4454,"responses":"{\"Q0\":\"Black-and-white Warbler\"}","bird":["Blackburnian Warbler"],"family":["Wood-Warblers"],"class":["874"],"trial_type":"image-multi-choice","trial_index":224,"time_elapsed":1474311,"internal_node_id":"0.0-1.0-223.0"},{"rt":5511,"responses":"{\"Q0\":\"Song Sparrow\"}","bird":["Swamp Sparrow"],"family":["New World Sparrows and Allies"],"class":["904"],"trial_type":"image-multi-choice","trial_index":225,"time_elapsed":1480840,"internal_node_id":"0.0-1.0-224.0"},{"rt":4710,"responses":"{\"Q0\":\"American Tree Sparrow\"}","bird":["American Tree Sparrow"],"family":["New World Sparrows and Allies"],"class":["894"],"trial_type":"image-multi-choice","trial_index":226,"time_elapsed":1486563,"internal_node_id":"0.0-1.0-225.0"},{"rt":3991,"responses":"{\"Q0\":\"Fox Sparrow\"}","bird":["Fox Sparrow"],"family":["New World Sparrows and Allies"],"class":["901"],"trial_type":"image-multi-choice","trial_index":227,"time_elapsed":1491573,"internal_node_id":"0.0-1.0-226.0"},{"rt":3957,"responses":"{\"Q0\":\"Northern Waterthrush\"}","bird":["Northern Waterthrush"],"family":["Wood-Warblers"],"class":["862"],"trial_type":"image-multi-choice","trial_index":228,"time_elapsed":1496540,"internal_node_id":"0.0-1.0-227.0"},{"rt":3402,"responses":"{\"Q0\":\"Orange-crowned Warbler\"}","bird":["Nashville Warbler"],"family":["Wood-Warblers"],"class":["868"],"trial_type":"image-multi-choice","trial_index":229,"time_elapsed":1500957,"internal_node_id":"0.0-1.0-228.0"},{"rt":6068,"responses":"{\"Q0\":\"Blackburnian Warbler\"}","bird":["Black-and-white Warbler"],"family":["Wood-Warblers"],"class":["864"],"trial_type":"image-multi-choice","trial_index":230,"time_elapsed":1508040,"internal_node_id":"0.0-1.0-229.0"},{"rt":4699,"responses":"{\"Q0\":\"Orange-crowned Warbler\"}","bird":["Tennessee Warbler"],"family":["Wood-Warblers"],"class":["866"],"trial_type":"image-multi-choice","trial_index":231,"time_elapsed":1513751,"internal_node_id":"0.0-1.0-230.0"},{"rt":3663,"responses":"{\"Q0\":\"Black-and-white Warbler\"}","bird":["Townsend's Warbler"],"family":["Wood-Warblers"],"class":["881"],"trial_type":"image-multi-choice","trial_index":232,"time_elapsed":1518439,"internal_node_id":"0.0-1.0-231.0"},{"rt":3639,"responses":"{\"Q0\":\"Black-and-white Warbler\"}","bird":["Magnolia Warbler"],"family":["Wood-Warblers"],"class":["758"],"trial_type":"image-multi-choice","trial_index":233,"time_elapsed":1523091,"internal_node_id":"0.0-1.0-232.0"},{"rt":3907,"responses":"{\"Q0\":\"Northern Waterthrush\"}","bird":["Northern Waterthrush"],"family":["Wood-Warblers"],"class":["862"],"trial_type":"image-multi-choice","trial_index":234,"time_elapsed":1528015,"internal_node_id":"0.0-1.0-233.0"},{"rt":5112,"responses":"{\"Q0\":\"Orange-crowned Warbler\"}","bird":["Orange-crowned Warbler"],"family":["Wood-Warblers"],"class":["867"],"trial_type":"image-multi-choice","trial_index":235,"time_elapsed":1534145,"internal_node_id":"0.0-1.0-234.0"},{"rt":2771,"responses":"{\"Q0\":\"White-throated Sparrow\"}","bird":["White-throated Sparrow"],"family":["New World Sparrows and Allies"],"class":["764"],"trial_type":"image-multi-choice","trial_index":236,"time_elapsed":1537930,"internal_node_id":"0.0-1.0-235.0"},{"rt":6132,"responses":"{\"Q0\":\"Yellow Warbler\"}","bird":["Yellow Warbler"],"family":["Wood-Warblers"],"class":["875"],"trial_type":"image-multi-choice","trial_index":237,"time_elapsed":1545075,"internal_node_id":"0.0-1.0-236.0"},{"rt":3861,"responses":"{\"Q0\":\"Fox Sparrow\"}","bird":["Fox Sparrow"],"family":["New World Sparrows and Allies"],"class":["901"],"trial_type":"image-multi-choice","trial_index":238,"time_elapsed":1549949,"internal_node_id":"0.0-1.0-237.0"},{"rt":3579,"responses":"{\"Q0\":\"White-throated Sparrow\"}","bird":["Swamp Sparrow"],"family":["New World Sparrows and Allies"],"class":["904"],"trial_type":"image-multi-choice","trial_index":239,"time_elapsed":1554542,"internal_node_id":"0.0-1.0-238.0"},{"rt":3657,"responses":"{\"Q0\":\"Fox Sparrow\"}","bird":["Fox Sparrow"],"family":["New World Sparrows and Allies"],"class":["901"],"trial_type":"image-multi-choice","trial_index":240,"time_elapsed":1570333,"internal_node_id":"0.0-1.0-239.0"},{"rt":4991,"responses":"{\"Q0\":\"Orange-crowned Warbler\"}","bird":["Orange-crowned Warbler"],"family":["Wood-Warblers"],"class":["867"],"trial_type":"image-multi-choice","trial_index":241,"time_elapsed":1576339,"internal_node_id":"0.0-1.0-240.0"},{"rt":2794,"responses":"{\"Q0\":\"White-crowned Sparrow\"}","bird":["White-crowned Sparrow"],"family":["New World Sparrows and Allies"],"class":["766"],"trial_type":"image-multi-choice","trial_index":242,"time_elapsed":1580148,"internal_node_id":"0.0-1.0-241.0"},{"rt":6016,"responses":"{\"Q0\":\"White-throated Sparrow\"}","bird":["White-throated Sparrow"],"family":["New World Sparrows and Allies"],"class":["764"],"trial_type":"image-multi-choice","trial_index":243,"time_elapsed":1587177,"internal_node_id":"0.0-1.0-242.0"},{"rt":4758,"responses":"{\"Q0\":\"Lincoln's Sparrow\"}","bird":["Song Sparrow"],"family":["New World Sparrows and Allies"],"class":["902"],"trial_type":"image-multi-choice","trial_index":244,"time_elapsed":1592950,"internal_node_id":"0.0-1.0-243.0"},{"rt":2810,"responses":"{\"Q0\":\"Lark Sparrow\"}","bird":["Lark Sparrow"],"family":["New World Sparrows and Allies"],"class":["899"],"trial_type":"image-multi-choice","trial_index":245,"time_elapsed":1596771,"internal_node_id":"0.0-1.0-244.0"},{"rt":3577,"responses":"{\"Q0\":\"Lark Sparrow\"}","bird":["Vesper Sparrow"],"family":["New World Sparrows and Allies"],"class":["898"],"trial_type":"image-multi-choice","trial_index":246,"time_elapsed":1601359,"internal_node_id":"0.0-1.0-245.0"},{"rt":3004,"responses":"{\"Q0\":\"Lark Sparrow\"}","bird":["Lark Sparrow"],"family":["New World Sparrows and Allies"],"class":["899"],"trial_type":"image-multi-choice","trial_index":247,"time_elapsed":1605378,"internal_node_id":"0.0-1.0-246.0"},{"rt":4244,"responses":"{\"Q0\":\"American Tree Sparrow\"}","bird":["American Tree Sparrow"],"family":["New World Sparrows and Allies"],"class":["894"],"trial_type":"image-multi-choice","trial_index":248,"time_elapsed":1610637,"internal_node_id":"0.0-1.0-247.0"},{"rt":3525,"responses":"{\"Q0\":\"Black-and-white Warbler\"}","bird":["Black-and-white Warbler"],"family":["Wood-Warblers"],"class":["864"],"trial_type":"image-multi-choice","trial_index":249,"time_elapsed":1615176,"internal_node_id":"0.0-1.0-248.0"},{"rt":3677,"responses":"{\"Q0\":\"Lark Sparrow\"}","bird":["Lark Sparrow"],"family":["New World Sparrows and Allies"],"class":["899"],"trial_type":"image-multi-choice","trial_index":250,"time_elapsed":1619866,"internal_node_id":"0.0-1.0-249.0"},{"rt":5992,"responses":"{\"Q0\":\"Orange-crowned Warbler\"}","bird":["Orange-crowned Warbler"],"family":["Wood-Warblers"],"class":["867"],"trial_type":"image-multi-choice","trial_index":251,"time_elapsed":1626872,"internal_node_id":"0.0-1.0-250.0"},{"rt":3359,"responses":"{\"Q0\":\"Black-and-white Warbler\"}","bird":["Blackburnian Warbler"],"family":["Wood-Warblers"],"class":["874"],"trial_type":"image-multi-choice","trial_index":252,"time_elapsed":1631252,"internal_node_id":"0.0-1.0-251.0"},{"rt":4177,"responses":"{\"Q0\":\"Lark Sparrow\"}","bird":["Vesper Sparrow"],"family":["New World Sparrows and Allies"],"class":["898"],"trial_type":"image-multi-choice","trial_index":253,"time_elapsed":1636444,"internal_node_id":"0.0-1.0-252.0"},{"rt":3416,"responses":"{\"Q0\":\"Black-and-white Warbler\"}","bird":["Townsend's Warbler"],"family":["Wood-Warblers"],"class":["881"],"trial_type":"image-multi-choice","trial_index":254,"time_elapsed":1640872,"internal_node_id":"0.0-1.0-253.0"},{"rt":8113,"responses":"{\"Q0\":\"Vesper Sparrow\"}","bird":["Swamp Sparrow"],"family":["New World Sparrows and Allies"],"class":["904"],"trial_type":"image-multi-choice","trial_index":255,"time_elapsed":1650001,"internal_node_id":"0.0-1.0-254.0"},{"rt":5560,"responses":"{\"Q0\":\"Song Sparrow\"}","bird":["Song Sparrow"],"family":["New World Sparrows and Allies"],"class":["902"],"trial_type":"image-multi-choice","trial_index":256,"time_elapsed":1656576,"internal_node_id":"0.0-1.0-255.0"},{"rt":4628,"responses":"{\"Q0\":\"White-throated Sparrow\"}","bird":["Swamp Sparrow"],"family":["New World Sparrows and Allies"],"class":["904"],"trial_type":"image-multi-choice","trial_index":257,"time_elapsed":1662219,"internal_node_id":"0.0-1.0-256.0"},{"rt":3942,"responses":"{\"Q0\":\"Ovenbird\"}","bird":["Ovenbird"],"family":["Wood-Warblers"],"class":["860"],"trial_type":"image-multi-choice","trial_index":258,"time_elapsed":1667175,"internal_node_id":"0.0-1.0-257.0"},{"rt":4022,"responses":"{\"Q0\":\"Black-and-white Warbler\"}","bird":["Black-and-white Warbler"],"family":["Wood-Warblers"],"class":["864"],"trial_type":"image-multi-choice","trial_index":259,"time_elapsed":1672217,"internal_node_id":"0.0-1.0-258.0"},{"rt":5160,"responses":"{\"Q0\":\"White-throated Sparrow\"}","bird":["American Tree Sparrow"],"family":["New World Sparrows and Allies"],"class":["894"],"trial_type":"image-multi-choice","trial_index":260,"time_elapsed":1678392,"internal_node_id":"0.0-1.0-259.0"},{"rt":2606,"responses":"{\"Q0\":\"Yellow Warbler\"}","bird":["Yellow Warbler"],"family":["Wood-Warblers"],"class":["875"],"trial_type":"image-multi-choice","trial_index":261,"time_elapsed":1682011,"internal_node_id":"0.0-1.0-260.0"},{"rt":4822,"responses":"{\"Q0\":\"Lincoln's Sparrow\"}","bird":["Vesper Sparrow"],"family":["New World Sparrows and Allies"],"class":["898"],"trial_type":"image-multi-choice","trial_index":262,"time_elapsed":1687849,"internal_node_id":"0.0-1.0-261.0"},{"rt":7203,"responses":"{\"Q0\":\"American Tree Sparrow\"}","bird":["Chipping Sparrow"],"family":["New World Sparrows and Allies"],"class":["769"],"trial_type":"image-multi-choice","trial_index":263,"time_elapsed":1696066,"internal_node_id":"0.0-1.0-262.0"},{"rt":6360,"responses":"{\"Q0\":\"Northern Waterthrush\"}","bird":["Northern Waterthrush"],"family":["Wood-Warblers"],"class":["862"],"trial_type":"image-multi-choice","trial_index":264,"time_elapsed":1703437,"internal_node_id":"0.0-1.0-263.0"},{"rt":4106,"responses":"{\"Q0\":\"Song Sparrow\"}","bird":["Song Sparrow"],"family":["New World Sparrows and Allies"],"class":["902"],"trial_type":"image-multi-choice","trial_index":265,"time_elapsed":1708560,"internal_node_id":"0.0-1.0-264.0"},{"rt":3202,"responses":"{\"Q0\":\"Nashville Warbler\"}","bird":["Nashville Warbler"],"family":["Wood-Warblers"],"class":["868"],"trial_type":"image-multi-choice","trial_index":266,"time_elapsed":1712775,"internal_node_id":"0.0-1.0-265.0"},{"rt":2484,"responses":"{\"Q0\":\"White-throated Sparrow\"}","bird":["White-throated Sparrow"],"family":["New World Sparrows and Allies"],"class":["764"],"trial_type":"image-multi-choice","trial_index":267,"time_elapsed":1716271,"internal_node_id":"0.0-1.0-266.0"},{"rt":2679,"responses":"{\"Q0\":\"White-crowned Sparrow\"}","bird":["White-crowned Sparrow"],"family":["New World Sparrows and Allies"],"class":["766"],"trial_type":"image-multi-choice","trial_index":268,"time_elapsed":1719964,"internal_node_id":"0.0-1.0-267.0"},{"rt":4124,"responses":"{\"Q0\":\"American Tree Sparrow\"}","bird":["American Tree Sparrow"],"family":["New World Sparrows and Allies"],"class":["894"],"trial_type":"image-multi-choice","trial_index":269,"time_elapsed":1725100,"internal_node_id":"0.0-1.0-268.0"},{"rt":6733,"responses":"{\"Q0\":\"Lark Sparrow\"}","bird":["White-throated Sparrow"],"family":["New World Sparrows and Allies"],"class":["764"],"trial_type":"image-multi-choice","trial_index":270,"time_elapsed":1732849,"internal_node_id":"0.0-1.0-269.0"},{"rt":2929,"responses":"{\"Q0\":\"White-throated Sparrow\"}","bird":["White-crowned Sparrow"],"family":["New World Sparrows and Allies"],"class":["766"],"trial_type":"image-multi-choice","trial_index":271,"time_elapsed":1736796,"internal_node_id":"0.0-1.0-270.0"},{"rt":2450,"responses":"{\"Q0\":\"Yellow Warbler\"}","bird":["Yellow Warbler"],"family":["Wood-Warblers"],"class":["875"],"trial_type":"image-multi-choice","trial_index":272,"time_elapsed":1740263,"internal_node_id":"0.0-1.0-271.0"},{"rt":7876,"responses":"{\"Q0\":\"Lincoln's Sparrow\"}","bird":["Chipping Sparrow"],"family":["New World Sparrows and Allies"],"class":["769"],"trial_type":"image-multi-choice","trial_index":273,"time_elapsed":1749151,"internal_node_id":"0.0-1.0-272.0"},{"rt":4485,"responses":"{\"Q0\":\"Northern Waterthrush\"}","bird":["Ovenbird"],"family":["Wood-Warblers"],"class":["860"],"trial_type":"image-multi-choice","trial_index":274,"time_elapsed":1754647,"internal_node_id":"0.0-1.0-273.0"},{"rt":6067,"responses":"{\"Q0\":\"Northern Waterthrush\"}","bird":["Northern Waterthrush"],"family":["Wood-Warblers"],"class":["862"],"trial_type":"image-multi-choice","trial_index":275,"time_elapsed":1761727,"internal_node_id":"0.0-1.0-274.0"},{"rt":4349,"responses":"{\"Q0\":\"Ovenbird\"}","bird":["Ovenbird"],"family":["Wood-Warblers"],"class":["860"],"trial_type":"image-multi-choice","trial_index":276,"time_elapsed":1767091,"internal_node_id":"0.0-1.0-275.0"},{"rt":3837,"responses":"{\"Q0\":\"Black-and-white Warbler\"}","bird":["Black-and-white Warbler"],"family":["Wood-Warblers"],"class":["864"],"trial_type":"image-multi-choice","trial_index":277,"time_elapsed":1771940,"internal_node_id":"0.0-1.0-276.0"},{"rt":7676,"responses":"{\"Q0\":\"Lark Sparrow\"}","bird":["Chipping Sparrow"],"family":["New World Sparrows and Allies"],"class":["769"],"trial_type":"image-multi-choice","trial_index":278,"time_elapsed":1780632,"internal_node_id":"0.0-1.0-277.0"},{"rt":3356,"responses":"{\"Q0\":\"Fox Sparrow\"}","bird":["Fox Sparrow"],"family":["New World Sparrows and Allies"],"class":["901"],"trial_type":"image-multi-choice","trial_index":279,"time_elapsed":1785000,"internal_node_id":"0.0-1.0-278.0"},{"rt":3515,"responses":"{\"Q0\":\"Black-and-white Warbler\"}","bird":["Magnolia Warbler"],"family":["Wood-Warblers"],"class":["758"],"trial_type":"image-multi-choice","trial_index":280,"time_elapsed":1789539,"internal_node_id":"0.0-1.0-279.0"},{"rt":3173,"responses":"{\"Q0\":\"White-crowned Sparrow\"}","bird":["White-crowned Sparrow"],"family":["New World Sparrows and Allies"],"class":["766"],"trial_type":"image-multi-choice","trial_index":281,"time_elapsed":1793726,"internal_node_id":"0.0-1.0-280.0"},{"rt":6745,"responses":"{\"Q0\":\"White-throated Sparrow\"}","bird":["White-throated Sparrow"],"family":["New World Sparrows and Allies"],"class":["764"],"trial_type":"image-multi-choice","trial_index":282,"time_elapsed":1801483,"internal_node_id":"0.0-1.0-281.0"},{"rt":4874,"responses":"{\"Q0\":\"Vesper Sparrow\"}","bird":["Swamp Sparrow"],"family":["New World Sparrows and Allies"],"class":["904"],"trial_type":"image-multi-choice","trial_index":283,"time_elapsed":1807377,"internal_node_id":"0.0-1.0-282.0"},{"rt":4041,"responses":"{\"Q0\":\"Black-and-white Warbler\"}","bird":["Magnolia Warbler"],"family":["Wood-Warblers"],"class":["758"],"trial_type":"image-multi-choice","trial_index":284,"time_elapsed":1812433,"internal_node_id":"0.0-1.0-283.0"},{"rt":5701,"responses":"{\"Q0\":\"Orange-crowned Warbler\"}","bird":["Orange-crowned Warbler"],"family":["Wood-Warblers"],"class":["867"],"trial_type":"image-multi-choice","trial_index":285,"time_elapsed":1819147,"internal_node_id":"0.0-1.0-284.0"},{"rt":5100,"responses":"{\"Q0\":\"Black-and-white Warbler\"}","bird":["Magnolia Warbler"],"family":["Wood-Warblers"],"class":["758"],"trial_type":"image-multi-choice","trial_index":286,"time_elapsed":1825258,"internal_node_id":"0.0-1.0-285.0"},{"rt":4078,"responses":"{\"Q0\":\"Song Sparrow\"}","bird":["Vesper Sparrow"],"family":["New World Sparrows and Allies"],"class":["898"],"trial_type":"image-multi-choice","trial_index":287,"time_elapsed":1830352,"internal_node_id":"0.0-1.0-286.0"},{"rt":4455,"responses":"{\"Q0\":\"Northern Waterthrush\"}","bird":["Northern Waterthrush"],"family":["Wood-Warblers"],"class":["862"],"trial_type":"image-multi-choice","trial_index":288,"time_elapsed":1835821,"internal_node_id":"0.0-1.0-287.0"},{"rt":5099,"responses":"{\"Q0\":\"Black-and-white Warbler\"}","bird":["Blackburnian Warbler"],"family":["Wood-Warblers"],"class":["874"],"trial_type":"image-multi-choice","trial_index":289,"time_elapsed":1841932,"internal_node_id":"0.0-1.0-288.0"},{"rt":3875,"responses":"{\"Q0\":\"Orange-crowned Warbler\"}","bird":["Tennessee Warbler"],"family":["Wood-Warblers"],"class":["866"],"trial_type":"image-multi-choice","trial_index":290,"time_elapsed":1846824,"internal_node_id":"0.0-1.0-289.0"},{"rt":2951,"responses":"{\"Q0\":\"Lark Sparrow\"}","bird":["Lark Sparrow"],"family":["New World Sparrows and Allies"],"class":["899"],"trial_type":"image-multi-choice","trial_index":291,"time_elapsed":1850788,"internal_node_id":"0.0-1.0-290.0"},{"rt":2988,"responses":"{\"Q0\":\"Black-and-white Warbler\"}","bird":["Black-and-white Warbler"],"family":["Wood-Warblers"],"class":["864"],"trial_type":"image-multi-choice","trial_index":292,"time_elapsed":1854788,"internal_node_id":"0.0-1.0-291.0"},{"rt":6145,"responses":"{\"Q0\":\"Lincoln's Sparrow\"}","bird":["Lincoln's Sparrow"],"family":["New World Sparrows and Allies"],"class":["903"],"trial_type":"image-multi-choice","trial_index":293,"time_elapsed":1861947,"internal_node_id":"0.0-1.0-292.0"},{"rt":5331,"responses":"{\"Q0\":\"Orange-crowned Warbler\"}","bird":["Tennessee Warbler"],"family":["Wood-Warblers"],"class":["866"],"trial_type":"image-multi-choice","trial_index":294,"time_elapsed":1868292,"internal_node_id":"0.0-1.0-293.0"},{"rt":6072,"responses":"{\"Q0\":\"Northern Waterthrush\"}","bird":["Ovenbird"],"family":["Wood-Warblers"],"class":["860"],"trial_type":"image-multi-choice","trial_index":295,"time_elapsed":1875382,"internal_node_id":"0.0-1.0-294.0"},{"rt":4925,"responses":"{\"Q0\":\"Song Sparrow\"}","bird":["Vesper Sparrow"],"family":["New World Sparrows and Allies"],"class":["898"],"trial_type":"image-multi-choice","trial_index":296,"time_elapsed":1881323,"internal_node_id":"0.0-1.0-295.0"},{"rt":3992,"responses":"{\"Q0\":\"Northern Waterthrush\"}","bird":["Northern Waterthrush"],"family":["Wood-Warblers"],"class":["862"],"trial_type":"image-multi-choice","trial_index":297,"time_elapsed":1886331,"internal_node_id":"0.0-1.0-296.0"},{"rt":3901,"responses":"{\"Q0\":\"Vesper Sparrow\"}","bird":["Chipping Sparrow"],"family":["New World Sparrows and Allies"],"class":["769"],"trial_type":"image-multi-choice","trial_index":298,"time_elapsed":1891246,"internal_node_id":"0.0-1.0-297.0"},{"rt":8392,"responses":"{\"Q0\":\"Lark Sparrow\"}","bird":["Lark Sparrow"],"family":["New World Sparrows and Allies"],"class":["899"],"trial_type":"image-multi-choice","trial_index":299,"time_elapsed":1900649,"internal_node_id":"0.0-1.0-298.0"},{"rt":2009,"responses":"{\"Q0\":\"Yellow Warbler\"}","bird":["Yellow Warbler"],"family":["Wood-Warblers"],"class":["875"],"trial_type":"image-multi-choice","trial_index":300,"time_elapsed":1907875,"internal_node_id":"0.0-1.0-299.0"},{"view_history":"[{\"page_index\":0,\"viewing_time\":3394}]","rt":3395,"trial_type":"instructions","trial_index":301,"time_elapsed":1912271,"internal_node_id":"0.0-2.0"}]