[{"view_history":"[{\"page_index\":0,\"viewing_time\":39035}]","rt":39035,"trial_type":"instructions","trial_index":0,"time_elapsed":39036,"internal_node_id":"0.0-0.0"},{"rt":10264,"responses":"{\"Q0\":\"American Tree Sparrow\"}","bird":["American Tree Sparrow"],"family":["New World Sparrows and Allies"],"class":["894"],"trial_type":"image-multi-choice","trial_index":1,"time_elapsed":50318,"internal_node_id":"0.0-1.0-0.0"},{"rt":9133,"responses":"{\"Q0\":\"Tennessee Warbler\"}","bird":["Tennessee Warbler"],"family":["Wood-Warblers"],"class":["866"],"trial_type":"image-multi-choice","trial_index":2,"time_elapsed":60463,"internal_node_id":"0.0-1.0-1.0"},{"rt":4068,"responses":"{\"Q0\":\"White-crowned Sparrow\"}","bird":["White-crowned Sparrow"],"family":["New World Sparrows and Allies"],"class":["766"],"trial_type":"image-multi-choice","trial_index":3,"time_elapsed":65544,"internal_node_id":"0.0-1.0-2.0"},{"rt":6334,"responses":"{\"Q0\":\"American Tree Sparrow\"}","bird":["American Tree Sparrow"],"family":["New World Sparrows and Allies"],"class":["894"],"trial_type":"image-multi-choice","trial_index":4,"time_elapsed":72891,"internal_node_id":"0.0-1.0-3.0"},{"rt":4352,"responses":"{\"Q0\":\"White-crowned Sparrow\"}","bird":["White-crowned Sparrow"],"family":["New World Sparrows and Allies"],"class":["766"],"trial_type":"image-multi-choice","trial_index":5,"time_elapsed":78254,"internal_node_id":"0.0-1.0-4.0"},{"rt":14539,"responses":"{\"Q0\":\"Blackburnian Warbler\"}","bird":["Townsend's Warbler"],"family":["Wood-Warblers"],"class":["881"],"trial_type":"image-multi-choice","trial_index":6,"time_elapsed":93802,"internal_node_id":"0.0-1.0-5.0"},{"rt":14932,"responses":"{\"Q0\":\"Song Sparrow\"}","bird":["Vesper Sparrow"],"family":["New World Sparrows and Allies"],"class":["898"],"trial_type":"image-multi-choice","trial_index":7,"time_elapsed":109746,"internal_node_id":"0.0-1.0-6.0"},{"rt":15905,"responses":"{\"Q0\":\"Tennessee Warbler\"}","bird":["Nashville Warbler"],"family":["Wood-Warblers"],"class":["868"],"trial_type":"image-multi-choice","trial_index":8,"time_elapsed":126661,"internal_node_id":"0.0-1.0-7.0"},{"rt":6593,"responses":"{\"Q0\":\"Northern Waterthrush\"}","bird":["Northern Waterthrush"],"family":["Wood-Warblers"],"class":["862"],"trial_type":"image-multi-choice","trial_index":9,"time_elapsed":134265,"internal_node_id":"0.0-1.0-8.0"},{"rt":4990,"responses":"{\"Q0\":\"Ovenbird\"}","bird":["Ovenbird"],"family":["Wood-Warblers"],"class":["860"],"trial_type":"image-multi-choice","trial_index":10,"time_elapsed":140265,"internal_node_id":"0.0-1.0-9.0"},{"rt":11151,"responses":"{\"Q0\":\"Lincoln's Sparrow\"}","bird":["Lincoln's Sparrow"],"family":["New World Sparrows and Allies"],"class":["903"],"trial_type":"image-multi-choice","trial_index":11,"time_elapsed":152425,"internal_node_id":"0.0-1.0-10.0"},{"rt":7992,"responses":"{\"Q0\":\"Magnolia Warbler\"}","bird":["Townsend's Warbler"],"family":["Wood-Warblers"],"class":["881"],"trial_type":"image-multi-choice","trial_index":12,"time_elapsed":161425,"internal_node_id":"0.0-1.0-11.0"},{"rt":4386,"responses":"{\"Q0\":\"Fox Sparrow\"}","bird":["Fox Sparrow"],"family":["New World Sparrows and Allies"],"class":["901"],"trial_type":"image-multi-choice","trial_index":13,"time_elapsed":166821,"internal_node_id":"0.0-1.0-12.0"},{"rt":38874,"responses":"{\"Q0\":\"Song Sparrow\"}","bird":["Blackburnian Warbler"],"family":["Wood-Warblers"],"class":["874"],"trial_type":"image-multi-choice","trial_index":14,"time_elapsed":206705,"internal_node_id":"0.0-1.0-13.0"},{"rt":10672,"responses":"{\"Q0\":\"Vesper Sparrow\"}","bird":["Vesper Sparrow"],"family":["New World Sparrows and Allies"],"class":["898"],"trial_type":"image-multi-choice","trial_index":15,"time_elapsed":218388,"internal_node_id":"0.0-1.0-14.0"},{"rt":2824,"responses":"{\"Q0\":\"Black-and-white Warbler\"}","bird":["Black-and-white Warbler"],"family":["Wood-Warblers"],"class":["864"],"trial_type":"image-multi-choice","trial_index":16,"time_elapsed":222222,"internal_node_id":"0.0-1.0-15.0"},{"rt":11121,"responses":"{\"Q0\":\"Nashville Warbler\"}","bird":["Nashville Warbler"],"family":["Wood-Warblers"],"class":["868"],"trial_type":"image-multi-choice","trial_index":17,"time_elapsed":234352,"internal_node_id":"0.0-1.0-16.0"},{"rt":5764,"responses":"{\"Q0\":\"Swamp Sparrow\"}","bird":["Lincoln's Sparrow"],"family":["New World Sparrows and Allies"],"class":["903"],"trial_type":"image-multi-choice","trial_index":18,"time_elapsed":241126,"internal_node_id":"0.0-1.0-17.0"},{"rt":6987,"responses":"{\"Q0\":\"Tennessee Warbler\"}","bird":["Nashville Warbler"],"family":["Wood-Warblers"],"class":["868"],"trial_type":"image-multi-choice","trial_index":19,"time_elapsed":249124,"internal_node_id":"0.0-1.0-18.0"},{"rt":3773,"responses":"{\"Q0\":\"Lark Sparrow\"}","bird":["Lark Sparrow"],"family":["New World Sparrows and Allies"],"class":["899"],"trial_type":"image-multi-choice","trial_index":20,"time_elapsed":253907,"internal_node_id":"0.0-1.0-19.0"},{"rt":4099,"responses":"{\"Q0\":\"Magnolia Warbler\"}","bird":["Magnolia Warbler"],"family":["Wood-Warblers"],"class":["758"],"trial_type":"image-multi-choice","trial_index":21,"time_elapsed":259018,"internal_node_id":"0.0-1.0-20.0"},{"rt":10250,"responses":"{\"Q0\":\"Townsend's Warbler\"}","bird":["Townsend's Warbler"],"family":["Wood-Warblers"],"class":["881"],"trial_type":"image-multi-choice","trial_index":22,"time_elapsed":270277,"internal_node_id":"0.0-1.0-21.0"},{"rt":25156,"responses":"{\"Q0\":\"Lark Sparrow\"}","bird":["Swamp Sparrow"],"family":["New World Sparrows and Allies"],"class":["904"],"trial_type":"image-multi-choice","trial_index":23,"time_elapsed":296443,"internal_node_id":"0.0-1.0-22.0"},{"rt":5441,"responses":"{\"Q0\":\"Tennessee Warbler\"}","bird":["Tennessee Warbler"],"family":["Wood-Warblers"],"class":["866"],"trial_type":"image-multi-choice","trial_index":24,"time_elapsed":302895,"internal_node_id":"0.0-1.0-23.0"},{"rt":5253,"responses":"{\"Q0\":\"Ovenbird\"}","bird":["Ovenbird"],"family":["Wood-Warblers"],"class":["860"],"trial_type":"image-multi-choice","trial_index":25,"time_elapsed":309158,"internal_node_id":"0.0-1.0-24.0"},{"rt":4418,"responses":"{\"Q0\":\"White-crowned Sparrow\"}","bird":["White-crowned Sparrow"],"family":["New World Sparrows and Allies"],"class":["766"],"trial_type":"image-multi-choice","trial_index":26,"time_elapsed":314591,"internal_node_id":"0.0-1.0-25.0"},{"rt":7261,"responses":"{\"Q0\":\"Vesper Sparrow\"}","bird":["Vesper Sparrow"],"family":["New World Sparrows and Allies"],"class":["898"],"trial_type":"image-multi-choice","trial_index":27,"time_elapsed":322863,"internal_node_id":"0.0-1.0-26.0"},{"rt":7730,"responses":"{\"Q0\":\"Nashville Warbler\"}","bird":["Orange-crowned Warbler"],"family":["Wood-Warblers"],"class":["867"],"trial_type":"image-multi-choice","trial_index":28,"time_elapsed":331602,"internal_node_id":"0.0-1.0-27.0"},{"rt":7214,"responses":"{\"Q0\":\"American Tree Sparrow\"}","bird":["American Tree Sparrow"],"family":["New World Sparrows and Allies"],"class":["894"],"trial_type":"image-multi-choice","trial_index":29,"time_elapsed":339826,"internal_node_id":"0.0-1.0-28.0"},{"rt":5981,"responses":"{\"Q0\":\"Tennessee Warbler\"}","bird":["Tennessee Warbler"],"family":["Wood-Warblers"],"class":["866"],"trial_type":"image-multi-choice","trial_index":30,"time_elapsed":346818,"internal_node_id":"0.0-1.0-29.0"},{"rt":4900,"responses":"{\"Q0\":\"Magnolia Warbler\"}","bird":["Magnolia Warbler"],"family":["Wood-Warblers"],"class":["758"],"trial_type":"image-multi-choice","trial_index":31,"time_elapsed":352728,"internal_node_id":"0.0-1.0-30.0"},{"rt":4117,"responses":"{\"Q0\":\"Blackburnian Warbler\"}","bird":["Blackburnian Warbler"],"family":["Wood-Warblers"],"class":["874"],"trial_type":"image-multi-choice","trial_index":32,"time_elapsed":357854,"internal_node_id":"0.0-1.0-31.0"},{"rt":3153,"responses":"{\"Q0\":\"Tennessee Warbler\"}","bird":["Tennessee Warbler"],"family":["Wood-Warblers"],"class":["866"],"trial_type":"image-multi-choice","trial_index":33,"time_elapsed":362019,"internal_node_id":"0.0-1.0-32.0"},{"rt":13237,"responses":"{\"Q0\":\"Song Sparrow\"}","bird":["Vesper Sparrow"],"family":["New World Sparrows and Allies"],"class":["898"],"trial_type":"image-multi-choice","trial_index":34,"time_elapsed":376266,"internal_node_id":"0.0-1.0-33.0"},{"rt":6280,"responses":"{\"Q0\":\"Tennessee Warbler\"}","bird":["Orange-crowned Warbler"],"family":["Wood-Warblers"],"class":["867"],"trial_type":"image-multi-choice","trial_index":35,"time_elapsed":383556,"internal_node_id":"0.0-1.0-34.0"},{"rt":2676,"responses":"{\"Q0\":\"White-crowned Sparrow\"}","bird":["White-crowned Sparrow"],"family":["New World Sparrows and Allies"],"class":["766"],"trial_type":"image-multi-choice","trial_index":36,"time_elapsed":387242,"internal_node_id":"0.0-1.0-35.0"},{"rt":3451,"responses":"{\"Q0\":\"Fox Sparrow\"}","bird":["Fox Sparrow"],"family":["New World Sparrows and Allies"],"class":["901"],"trial_type":"image-multi-choice","trial_index":37,"time_elapsed":391701,"internal_node_id":"0.0-1.0-36.0"},{"rt":7862,"responses":"{\"Q0\":\"Swamp Sparrow\"}","bird":["Swamp Sparrow"],"family":["New World Sparrows and Allies"],"class":["904"],"trial_type":"image-multi-choice","trial_index":38,"time_elapsed":400573,"internal_node_id":"0.0-1.0-37.0"},{"rt":2479,"responses":"{\"Q0\":\"Yellow Warbler\"}","bird":["Yellow Warbler"],"family":["Wood-Warblers"],"class":["875"],"trial_type":"image-multi-choice","trial_index":39,"time_elapsed":404061,"internal_node_id":"0.0-1.0-38.0"},{"rt":5468,"responses":"{\"Q0\":\"Black-and-white Warbler\"}","bird":["Black-and-white Warbler"],"family":["Wood-Warblers"],"class":["864"],"trial_type":"image-multi-choice","trial_index":40,"time_elapsed":410537,"internal_node_id":"0.0-1.0-39.0"},{"rt":3120,"responses":"{\"Q0\":\"Fox Sparrow\"}","bird":["Fox Sparrow"],"family":["New World Sparrows and Allies"],"class":["901"],"trial_type":"image-multi-choice","trial_index":41,"time_elapsed":414667,"internal_node_id":"0.0-1.0-40.0"},{"rt":5693,"responses":"{\"Q0\":\"Northern Waterthrush\"}","bird":["Northern Waterthrush"],"family":["Wood-Warblers"],"class":["862"],"trial_type":"image-multi-choice","trial_index":42,"time_elapsed":421369,"internal_node_id":"0.0-1.0-41.0"},{"rt":4495,"responses":"{\"Q0\":\"Tennessee Warbler\"}","bird":["Nashville Warbler"],"family":["Wood-Warblers"],"class":["868"],"trial_type":"image-multi-choice","trial_index":43,"time_elapsed":426873,"internal_node_id":"0.0-1.0-42.0"},{"rt":4603,"responses":"{\"Q0\":\"Blackburnian Warbler\"}","bird":["Blackburnian Warbler"],"family":["Wood-Warblers"],"class":["874"],"trial_type":"image-multi-choice","trial_index":44,"time_elapsed":432485,"internal_node_id":"0.0-1.0-43.0"},{"rt":5527,"responses":"{\"Q0\":\"Yellow Warbler\"}","bird":["Orange-crowned Warbler"],"family":["Wood-Warblers"],"class":["867"],"trial_type":"image-multi-choice","trial_index":45,"time_elapsed":439022,"internal_node_id":"0.0-1.0-44.0"},{"rt":5545,"responses":"{\"Q0\":\"Blackburnian Warbler\"}","bird":["Blackburnian Warbler"],"family":["Wood-Warblers"],"class":["874"],"trial_type":"image-multi-choice","trial_index":46,"time_elapsed":445576,"internal_node_id":"0.0-1.0-45.0"},{"rt":7049,"responses":"{\"Q0\":\"Tennessee Warbler\"}","bird":["Nashville Warbler"],"family":["Wood-Warblers"],"class":["868"],"trial_type":"image-multi-choice","trial_index":47,"time_elapsed":453635,"internal_node_id":"0.0-1.0-46.0"},{"rt":2604,"responses":"{\"Q0\":\"Northern Waterthrush\"}","bird":["Northern Waterthrush"],"family":["Wood-Warblers"],"class":["862"],"trial_type":"image-multi-choice","trial_index":48,"time_elapsed":457248,"internal_node_id":"0.0-1.0-47.0"},{"rt":2415,"responses":"{\"Q0\":\"Fox Sparrow\"}","bird":["Fox Sparrow"],"family":["New World Sparrows and Allies"],"class":["901"],"trial_type":"image-multi-choice","trial_index":49,"time_elapsed":460674,"internal_node_id":"0.0-1.0-48.0"},{"rt":7936,"responses":"{\"Q0\":\"Vesper Sparrow\"}","bird":["Swamp Sparrow"],"family":["New World Sparrows and Allies"],"class":["904"],"trial_type":"image-multi-choice","trial_index":50,"time_elapsed":469619,"internal_node_id":"0.0-1.0-49.0"},{"rt":5368,"responses":"{\"Q0\":\"Nashville Warbler\"}","bird":["Nashville Warbler"],"family":["Wood-Warblers"],"class":["868"],"trial_type":"image-multi-choice","trial_index":51,"time_elapsed":475998,"internal_node_id":"0.0-1.0-50.0"},{"rt":3278,"responses":"{\"Q0\":\"Black-and-white Warbler\"}","bird":["Black-and-white Warbler"],"family":["Wood-Warblers"],"class":["864"],"trial_type":"image-multi-choice","trial_index":52,"time_elapsed":480286,"internal_node_id":"0.0-1.0-51.0"},{"rt":6736,"responses":"{\"Q0\":\"American Tree Sparrow\"}","bird":["American Tree Sparrow"],"family":["New World Sparrows and Allies"],"class":["894"],"trial_type":"image-multi-choice","trial_index":53,"time_elapsed":488032,"internal_node_id":"0.0-1.0-52.0"},{"rt":2620,"responses":"{\"Q0\":\"Black-and-white Warbler\"}","bird":["Black-and-white Warbler"],"family":["Wood-Warblers"],"class":["864"],"trial_type":"image-multi-choice","trial_index":54,"time_elapsed":491663,"internal_node_id":"0.0-1.0-53.0"},{"rt":6076,"responses":"{\"Q0\":\"Blackburnian Warbler\"}","bird":["Townsend's Warbler"],"family":["Wood-Warblers"],"class":["881"],"trial_type":"image-multi-choice","trial_index":55,"time_elapsed":498749,"internal_node_id":"0.0-1.0-54.0"},{"rt":3410,"responses":"{\"Q0\":\"Lark Sparrow\"}","bird":["Lark Sparrow"],"family":["New World Sparrows and Allies"],"class":["899"],"trial_type":"image-multi-choice","trial_index":56,"time_elapsed":503170,"internal_node_id":"0.0-1.0-55.0"},{"rt":2574,"responses":"{\"Q0\":\"Ovenbird\"}","bird":["Ovenbird"],"family":["Wood-Warblers"],"class":["860"],"trial_type":"image-multi-choice","trial_index":57,"time_elapsed":506753,"internal_node_id":"0.0-1.0-56.0"},{"rt":7919,"responses":"{\"Q0\":\"Lincoln's Sparrow\"}","bird":["Song Sparrow"],"family":["New World Sparrows and Allies"],"class":["902"],"trial_type":"image-multi-choice","trial_index":58,"time_elapsed":515683,"internal_node_id":"0.0-1.0-57.0"},{"rt":4736,"responses":"{\"Q0\":\"Chipping Sparrow\"}","bird":["Chipping Sparrow"],"family":["New World Sparrows and Allies"],"class":["769"],"trial_type":"image-multi-choice","trial_index":59,"time_elapsed":521429,"internal_node_id":"0.0-1.0-58.0"},{"rt":2618,"responses":"{\"Q0\":\"Black-and-white Warbler\"}","bird":["Black-and-white Warbler"],"family":["Wood-Warblers"],"class":["864"],"trial_type":"image-multi-choice","trial_index":60,"time_elapsed":547503,"internal_node_id":"0.0-1.0-59.0"},{"rt":6337,"responses":"{\"Q0\":\"Chipping Sparrow\"}","bird":["Chipping Sparrow"],"family":["New World Sparrows and Allies"],"class":["769"],"trial_type":"image-multi-choice","trial_index":61,"time_elapsed":554850,"internal_node_id":"0.0-1.0-60.0"},{"rt":7257,"responses":"{\"Q0\":\"Lincoln's Sparrow\"}","bird":["Swamp Sparrow"],"family":["New World Sparrows and Allies"],"class":["904"],"trial_type":"image-multi-choice","trial_index":62,"time_elapsed":563120,"internal_node_id":"0.0-1.0-61.0"},{"rt":4106,"responses":"{\"Q0\":\"Tennessee Warbler\"}","bird":["Nashville Warbler"],"family":["Wood-Warblers"],"class":["868"],"trial_type":"image-multi-choice","trial_index":63,"time_elapsed":568238,"internal_node_id":"0.0-1.0-62.0"},{"rt":6778,"responses":"{\"Q0\":\"Swamp Sparrow\"}","bird":["Lincoln's Sparrow"],"family":["New World Sparrows and Allies"],"class":["903"],"trial_type":"image-multi-choice","trial_index":64,"time_elapsed":576028,"internal_node_id":"0.0-1.0-63.0"},{"rt":4532,"responses":"{\"Q0\":\"Black-and-white Warbler\"}","bird":["Black-and-white Warbler"],"family":["Wood-Warblers"],"class":["864"],"trial_type":"image-multi-choice","trial_index":65,"time_elapsed":581570,"internal_node_id":"0.0-1.0-64.0"},{"rt":2838,"responses":"{\"Q0\":\"Fox Sparrow\"}","bird":["Fox Sparrow"],"family":["New World Sparrows and Allies"],"class":["901"],"trial_type":"image-multi-choice","trial_index":66,"time_elapsed":585420,"internal_node_id":"0.0-1.0-65.0"},{"rt":4054,"responses":"{\"Q0\":\"Blackburnian Warbler\"}","bird":["Townsend's Warbler"],"family":["Wood-Warblers"],"class":["881"],"trial_type":"image-multi-choice","trial_index":67,"time_elapsed":590482,"internal_node_id":"0.0-1.0-66.0"},{"rt":3333,"responses":"{\"Q0\":\"Yellow Warbler\"}","bird":["Yellow Warbler"],"family":["Wood-Warblers"],"class":["875"],"trial_type":"image-multi-choice","trial_index":68,"time_elapsed":594824,"internal_node_id":"0.0-1.0-67.0"},{"rt":3016,"responses":"{\"Q0\":\"Tennessee Warbler\"}","bird":["Tennessee Warbler"],"family":["Wood-Warblers"],"class":["866"],"trial_type":"image-multi-choice","trial_index":69,"time_elapsed":598852,"internal_node_id":"0.0-1.0-68.0"},{"rt":3166,"responses":"{\"Q0\":\"Ovenbird\"}","bird":["Ovenbird"],"family":["Wood-Warblers"],"class":["860"],"trial_type":"image-multi-choice","trial_index":70,"time_elapsed":603030,"internal_node_id":"0.0-1.0-69.0"},{"rt":6295,"responses":"{\"Q0\":\"Townsend's Warbler\"}","bird":["Townsend's Warbler"],"family":["Wood-Warblers"],"class":["881"],"trial_type":"image-multi-choice","trial_index":71,"time_elapsed":610336,"internal_node_id":"0.0-1.0-70.0"},{"rt":2707,"responses":"{\"Q0\":\"Black-and-white Warbler\"}","bird":["Black-and-white Warbler"],"family":["Wood-Warblers"],"class":["864"],"trial_type":"image-multi-choice","trial_index":72,"time_elapsed":614052,"internal_node_id":"0.0-1.0-71.0"},{"rt":15451,"responses":"{\"Q0\":\"Lark Sparrow\"}","bird":["Song Sparrow"],"family":["New World Sparrows and Allies"],"class":["902"],"trial_type":"image-multi-choice","trial_index":73,"time_elapsed":630512,"internal_node_id":"0.0-1.0-72.0"},{"rt":3635,"responses":"{\"Q0\":\"Northern Waterthrush\"}","bird":["Northern Waterthrush"],"family":["Wood-Warblers"],"class":["862"],"trial_type":"image-multi-choice","trial_index":74,"time_elapsed":635158,"internal_node_id":"0.0-1.0-73.0"},{"rt":7871,"responses":"{\"Q0\":\"Swamp Sparrow\"}","bird":["Swamp Sparrow"],"family":["New World Sparrows and Allies"],"class":["904"],"trial_type":"image-multi-choice","trial_index":75,"time_elapsed":644038,"internal_node_id":"0.0-1.0-74.0"},{"rt":2573,"responses":"{\"Q0\":\"White-crowned Sparrow\"}","bird":["White-crowned Sparrow"],"family":["New World Sparrows and Allies"],"class":["766"],"trial_type":"image-multi-choice","trial_index":76,"time_elapsed":647620,"internal_node_id":"0.0-1.0-75.0"},{"rt":2564,"responses":"{\"Q0\":\"White-throated Sparrow\"}","bird":["White-throated Sparrow"],"family":["New World Sparrows and Allies"],"class":["764"],"trial_type":"image-multi-choice","trial_index":77,"time_elapsed":651194,"internal_node_id":"0.0-1.0-76.0"},{"rt":5595,"responses":"{\"Q0\":\"Blackburnian Warbler\"}","bird":["Townsend's Warbler"],"family":["Wood-Warblers"],"class":["881"],"trial_type":"image-multi-choice","trial_index":78,"time_elapsed":657800,"internal_node_id":"0.0-1.0-77.0"},{"rt":4232,"responses":"{\"Q0\":\"Vesper Sparrow\"}","bird":["Vesper Sparrow"],"family":["New World Sparrows and Allies"],"class":["898"],"trial_type":"image-multi-choice","trial_index":79,"time_elapsed":663041,"internal_node_id":"0.0-1.0-78.0"},{"rt":2759,"responses":"{\"Q0\":\"White-throated Sparrow\"}","bird":["White-throated Sparrow"],"family":["New World Sparrows and Allies"],"class":["764"],"trial_type":"image-multi-choice","trial_index":80,"time_elapsed":666811,"internal_node_id":"0.0-1.0-79.0"},{"rt":3309,"responses":"{\"Q0\":\"Northern Waterthrush\"}","bird":["Northern Waterthrush"],"family":["Wood-Warblers"],"class":["862"],"trial_type":"image-multi-choice","trial_index":81,"time_elapsed":671129,"internal_node_id":"0.0-1.0-80.0"},{"rt":2276,"responses":"{\"Q0\":\"Yellow Warbler\"}","bird":["Yellow Warbler"],"family":["Wood-Warblers"],"class":["875"],"trial_type":"image-multi-choice","trial_index":82,"time_elapsed":674413,"internal_node_id":"0.0-1.0-81.0"},{"rt":4714,"responses":"{\"Q0\":\"Tennessee Warbler\"}","bird":["Nashville Warbler"],"family":["Wood-Warblers"],"class":["868"],"trial_type":"image-multi-choice","trial_index":83,"time_elapsed":680138,"internal_node_id":"0.0-1.0-82.0"},{"rt":2721,"responses":"{\"Q0\":\"Lark Sparrow\"}","bird":["Lark Sparrow"],"family":["New World Sparrows and Allies"],"class":["899"],"trial_type":"image-multi-choice","trial_index":84,"time_elapsed":683867,"internal_node_id":"0.0-1.0-83.0"},{"rt":6038,"responses":"{\"Q0\":\"Tennessee Warbler\"}","bird":["Orange-crowned Warbler"],"family":["Wood-Warblers"],"class":["867"],"trial_type":"image-multi-choice","trial_index":85,"time_elapsed":690913,"internal_node_id":"0.0-1.0-84.0"},{"rt":4597,"responses":"{\"Q0\":\"Yellow Warbler\"}","bird":["Nashville Warbler"],"family":["Wood-Warblers"],"class":["868"],"trial_type":"image-multi-choice","trial_index":86,"time_elapsed":696519,"internal_node_id":"0.0-1.0-85.0"},{"rt":3034,"responses":"{\"Q0\":\"Black-and-white Warbler\"}","bird":["Black-and-white Warbler"],"family":["Wood-Warblers"],"class":["864"],"trial_type":"image-multi-choice","trial_index":87,"time_elapsed":700563,"internal_node_id":"0.0-1.0-86.0"},{"rt":5624,"responses":"{\"Q0\":\"Nashville Warbler\"}","bird":["Nashville Warbler"],"family":["Wood-Warblers"],"class":["868"],"trial_type":"image-multi-choice","trial_index":88,"time_elapsed":707195,"internal_node_id":"0.0-1.0-87.0"},{"rt":3684,"responses":"{\"Q0\":\"Ovenbird\"}","bird":["Ovenbird"],"family":["Wood-Warblers"],"class":["860"],"trial_type":"image-multi-choice","trial_index":89,"time_elapsed":711889,"internal_node_id":"0.0-1.0-88.0"},{"rt":5613,"responses":"{\"Q0\":\"Black-and-white Warbler\"}","bird":["Black-and-white Warbler"],"family":["Wood-Warblers"],"class":["864"],"trial_type":"image-multi-choice","trial_index":90,"time_elapsed":718511,"internal_node_id":"0.0-1.0-89.0"},{"rt":8547,"responses":"{\"Q0\":\"Lark Sparrow\"}","bird":["Chipping Sparrow"],"family":["New World Sparrows and Allies"],"class":["769"],"trial_type":"image-multi-choice","trial_index":91,"time_elapsed":728067,"internal_node_id":"0.0-1.0-90.0"},{"rt":4359,"responses":"{\"Q0\":\"Tennessee Warbler\"}","bird":["Tennessee Warbler"],"family":["Wood-Warblers"],"class":["866"],"trial_type":"image-multi-choice","trial_index":92,"time_elapsed":733435,"internal_node_id":"0.0-1.0-91.0"},{"rt":3331,"responses":"{\"Q0\":\"White-throated Sparrow\"}","bird":["White-throated Sparrow"],"family":["New World Sparrows and Allies"],"class":["764"],"trial_type":"image-multi-choice","trial_index":93,"time_elapsed":737779,"internal_node_id":"0.0-1.0-92.0"},{"rt":5229,"responses":"{\"Q0\":\"Fox Sparrow\"}","bird":["Song Sparrow"],"family":["New World Sparrows and Allies"],"class":["902"],"trial_type":"image-multi-choice","trial_index":94,"time_elapsed":744016,"internal_node_id":"0.0-1.0-93.0"},{"rt":3968,"responses":"{\"Q0\":\"Blackburnian Warbler\"}","bird":["Blackburnian Warbler"],"family":["Wood-Warblers"],"class":["874"],"trial_type":"image-multi-choice","trial_index":95,"time_elapsed":748995,"internal_node_id":"0.0-1.0-94.0"},{"rt":6453,"responses":"{\"Q0\":\"American Tree Sparrow\"}","bird":["American Tree Sparrow"],"family":["New World Sparrows and Allies"],"class":["894"],"trial_type":"image-multi-choice","trial_index":96,"time_elapsed":756458,"internal_node_id":"0.0-1.0-95.0"},{"rt":2673,"responses":"{\"Q0\":\"White-throated Sparrow\"}","bird":["White-throated Sparrow"],"family":["New World Sparrows and Allies"],"class":["764"],"trial_type":"image-multi-choice","trial_index":97,"time_elapsed":760141,"internal_node_id":"0.0-1.0-96.0"},{"rt":4422,"responses":"{\"Q0\":\"Tennessee Warbler\"}","bird":["Orange-crowned Warbler"],"family":["Wood-Warblers"],"class":["867"],"trial_type":"image-multi-choice","trial_index":98,"time_elapsed":765573,"internal_node_id":"0.0-1.0-97.0"},{"rt":2069,"responses":"{\"Q0\":\"Yellow Warbler\"}","bird":["Yellow Warbler"],"family":["Wood-Warblers"],"class":["875"],"trial_type":"image-multi-choice","trial_index":99,"time_elapsed":768653,"internal_node_id":"0.0-1.0-98.0"},{"rt":3638,"responses":"{\"Q0\":\"Fox Sparrow\"}","bird":["Fox Sparrow"],"family":["New World Sparrows and Allies"],"class":["901"],"trial_type":"image-multi-choice","trial_index":100,"time_elapsed":773299,"internal_node_id":"0.0-1.0-99.0"},{"rt":5502,"responses":"{\"Q0\":\"Chipping Sparrow\"}","bird":["Chipping Sparrow"],"family":["New World Sparrows and Allies"],"class":["769"],"trial_type":"image-multi-choice","trial_index":101,"time_elapsed":779812,"internal_node_id":"0.0-1.0-100.0"},{"rt":3335,"responses":"{\"Q0\":\"Northern Waterthrush\"}","bird":["Northern Waterthrush"],"family":["Wood-Warblers"],"class":["862"],"trial_type":"image-multi-choice","trial_index":102,"time_elapsed":784162,"internal_node_id":"0.0-1.0-101.0"},{"rt":5418,"responses":"{\"Q0\":\"Song Sparrow\"}","bird":["Swamp Sparrow"],"family":["New World Sparrows and Allies"],"class":["904"],"trial_type":"image-multi-choice","trial_index":103,"time_elapsed":790590,"internal_node_id":"0.0-1.0-102.0"},{"rt":2464,"responses":"{\"Q0\":\"Northern Waterthrush\"}","bird":["Northern Waterthrush"],"family":["Wood-Warblers"],"class":["862"],"trial_type":"image-multi-choice","trial_index":104,"time_elapsed":794063,"internal_node_id":"0.0-1.0-103.0"},{"rt":2048,"responses":"{\"Q0\":\"Yellow Warbler\"}","bird":["Yellow Warbler"],"family":["Wood-Warblers"],"class":["875"],"trial_type":"image-multi-choice","trial_index":105,"time_elapsed":797120,"internal_node_id":"0.0-1.0-104.0"},{"rt":3583,"responses":"{\"Q0\":\"Magnolia Warbler\"}","bird":["Magnolia Warbler"],"family":["Wood-Warblers"],"class":["758"],"trial_type":"image-multi-choice","trial_index":106,"time_elapsed":801712,"internal_node_id":"0.0-1.0-105.0"},{"rt":3553,"responses":"{\"Q0\":\"Blackburnian Warbler\"}","bird":["Townsend's Warbler"],"family":["Wood-Warblers"],"class":["881"],"trial_type":"image-multi-choice","trial_index":107,"time_elapsed":806274,"internal_node_id":"0.0-1.0-106.0"},{"rt":6468,"responses":"{\"Q0\":\"Song Sparrow\"}","bird":["Swamp Sparrow"],"family":["New World Sparrows and Allies"],"class":["904"],"trial_type":"image-multi-choice","trial_index":108,"time_elapsed":813750,"internal_node_id":"0.0-1.0-107.0"},{"rt":5103,"responses":"{\"Q0\":\"Fox Sparrow\"}","bird":["Fox Sparrow"],"family":["New World Sparrows and Allies"],"class":["901"],"trial_type":"image-multi-choice","trial_index":109,"time_elapsed":819864,"internal_node_id":"0.0-1.0-108.0"},{"rt":2651,"responses":"{\"Q0\":\"Yellow Warbler\"}","bird":["Yellow Warbler"],"family":["Wood-Warblers"],"class":["875"],"trial_type":"image-multi-choice","trial_index":110,"time_elapsed":823524,"internal_node_id":"0.0-1.0-109.0"},{"rt":16754,"responses":"{\"Q0\":\"Song Sparrow\"}","bird":["Lincoln's Sparrow"],"family":["New World Sparrows and Allies"],"class":["903"],"trial_type":"image-multi-choice","trial_index":111,"time_elapsed":841292,"internal_node_id":"0.0-1.0-110.0"},{"rt":6279,"responses":"{\"Q0\":\"Townsend's Warbler\"}","bird":["Townsend's Warbler"],"family":["Wood-Warblers"],"class":["881"],"trial_type":"image-multi-choice","trial_index":112,"time_elapsed":848582,"internal_node_id":"0.0-1.0-111.0"},{"rt":5589,"responses":"{\"Q0\":\"White-crowned Sparrow\"}","bird":["White-crowned Sparrow"],"family":["New World Sparrows and Allies"],"class":["766"],"trial_type":"image-multi-choice","trial_index":113,"time_elapsed":855181,"internal_node_id":"0.0-1.0-112.0"},{"rt":4108,"responses":"{\"Q0\":\"Blackburnian Warbler\"}","bird":["Blackburnian Warbler"],"family":["Wood-Warblers"],"class":["874"],"trial_type":"image-multi-choice","trial_index":114,"time_elapsed":860300,"internal_node_id":"0.0-1.0-113.0"},{"rt":3057,"responses":"{\"Q0\":\"Tennessee Warbler\"}","bird":["Nashville Warbler"],"family":["Wood-Warblers"],"class":["868"],"trial_type":"image-multi-choice","trial_index":115,"time_elapsed":864366,"internal_node_id":"0.0-1.0-114.0"},{"rt":4666,"responses":"{\"Q0\":\"Tennessee Warbler\"}","bird":["Tennessee Warbler"],"family":["Wood-Warblers"],"class":["866"],"trial_type":"image-multi-choice","trial_index":116,"time_elapsed":870048,"internal_node_id":"0.0-1.0-115.0"},{"rt":5174,"responses":"{\"Q0\":\"Song Sparrow\"}","bird":["Vesper Sparrow"],"family":["New World Sparrows and Allies"],"class":["898"],"trial_type":"image-multi-choice","trial_index":117,"time_elapsed":876232,"internal_node_id":"0.0-1.0-116.0"},{"rt":7226,"responses":"{\"Q0\":\"Lincoln's Sparrow\"}","bird":["Swamp Sparrow"],"family":["New World Sparrows and Allies"],"class":["904"],"trial_type":"image-multi-choice","trial_index":118,"time_elapsed":884467,"internal_node_id":"0.0-1.0-117.0"},{"rt":2915,"responses":"{\"Q0\":\"White-crowned Sparrow\"}","bird":["White-crowned Sparrow"],"family":["New World Sparrows and Allies"],"class":["766"],"trial_type":"image-multi-choice","trial_index":119,"time_elapsed":888392,"internal_node_id":"0.0-1.0-118.0"},{"rt":8685,"responses":"{\"Q0\":\"Blackburnian Warbler\"}","bird":["Blackburnian Warbler"],"family":["Wood-Warblers"],"class":["874"],"trial_type":"image-multi-choice","trial_index":120,"time_elapsed":903009,"internal_node_id":"0.0-1.0-119.0"},{"rt":3742,"responses":"{\"Q0\":\"Fox Sparrow\"}","bird":["Fox Sparrow"],"family":["New World Sparrows and Allies"],"class":["901"],"trial_type":"image-multi-choice","trial_index":121,"time_elapsed":907760,"internal_node_id":"0.0-1.0-120.0"},{"rt":4275,"responses":"{\"Q0\":\"Vesper Sparrow\"}","bird":["Vesper Sparrow"],"family":["New World Sparrows and Allies"],"class":["898"],"trial_type":"image-multi-choice","trial_index":122,"time_elapsed":913043,"internal_node_id":"0.0-1.0-121.0"},{"rt":6387,"responses":"{\"Q0\":\"Yellow Warbler\"}","bird":["Yellow Warbler"],"family":["Wood-Warblers"],"class":["875"],"trial_type":"image-multi-choice","trial_index":123,"time_elapsed":920440,"internal_node_id":"0.0-1.0-122.0"},{"rt":9912,"responses":"{\"Q0\":\"Song Sparrow\"}","bird":["Song Sparrow"],"family":["New World Sparrows and Allies"],"class":["902"],"trial_type":"image-multi-choice","trial_index":124,"time_elapsed":931364,"internal_node_id":"0.0-1.0-123.0"},{"rt":3349,"responses":"{\"Q0\":\"Blackburnian Warbler\"}","bird":["Townsend's Warbler"],"family":["Wood-Warblers"],"class":["881"],"trial_type":"image-multi-choice","trial_index":125,"time_elapsed":935722,"internal_node_id":"0.0-1.0-124.0"},{"rt":3186,"responses":"{\"Q0\":\"White-crowned Sparrow\"}","bird":["White-crowned Sparrow"],"family":["New World Sparrows and Allies"],"class":["766"],"trial_type":"image-multi-choice","trial_index":126,"time_elapsed":939916,"internal_node_id":"0.0-1.0-125.0"},{"rt":6150,"responses":"{\"Q0\":\"Song Sparrow\"}","bird":["Song Sparrow"],"family":["New World Sparrows and Allies"],"class":["902"],"trial_type":"image-multi-choice","trial_index":127,"time_elapsed":947073,"internal_node_id":"0.0-1.0-126.0"},{"rt":2933,"responses":"{\"Q0\":\"Ovenbird\"}","bird":["Ovenbird"],"family":["Wood-Warblers"],"class":["860"],"trial_type":"image-multi-choice","trial_index":128,"time_elapsed":951016,"internal_node_id":"0.0-1.0-127.0"},{"rt":3449,"responses":"{\"Q0\":\"Magnolia Warbler\"}","bird":["Magnolia Warbler"],"family":["Wood-Warblers"],"class":["758"],"trial_type":"image-multi-choice","trial_index":129,"time_elapsed":955473,"internal_node_id":"0.0-1.0-128.0"},{"rt":7700,"responses":"{\"Q0\":\"Swamp Sparrow\"}","bird":["Swamp Sparrow"],"family":["New World Sparrows and Allies"],"class":["904"],"trial_type":"image-multi-choice","trial_index":130,"time_elapsed":964182,"internal_node_id":"0.0-1.0-129.0"},{"rt":3117,"responses":"{\"Q0\":\"Lark Sparrow\"}","bird":["Lark Sparrow"],"family":["New World Sparrows and Allies"],"class":["899"],"trial_type":"image-multi-choice","trial_index":131,"time_elapsed":968311,"internal_node_id":"0.0-1.0-130.0"},{"rt":5053,"responses":"{\"Q0\":\"Magnolia Warbler\"}","bird":["Magnolia Warbler"],"family":["Wood-Warblers"],"class":["758"],"trial_type":"image-multi-choice","trial_index":132,"time_elapsed":974378,"internal_node_id":"0.0-1.0-131.0"},{"rt":3003,"responses":"{\"Q0\":\"White-throated Sparrow\"}","bird":["White-throated Sparrow"],"family":["New World Sparrows and Allies"],"class":["764"],"trial_type":"image-multi-choice","trial_index":133,"time_elapsed":978389,"internal_node_id":"0.0-1.0-132.0"},{"rt":4502,"responses":"{\"Q0\":\"Magnolia Warbler\"}","bird":["Magnolia Warbler"],"family":["Wood-Warblers"],"class":["758"],"trial_type":"image-multi-choice","trial_index":134,"time_elapsed":983898,"internal_node_id":"0.0-1.0-133.0"},{"rt":3213,"responses":"{\"Q0\":\"Yellow Warbler\"}","bird":["Yellow Warbler"],"family":["Wood-Warblers"],"class":["875"],"trial_type":"image-multi-choice","trial_index":135,"time_elapsed":988122,"internal_node_id":"0.0-1.0-134.0"},{"rt":3854,"responses":"{\"Q0\":\"Tennessee Warbler\"}","bird":["Tennessee Warbler"],"family":["Wood-Warblers"],"class":["866"],"trial_type":"image-multi-choice","trial_index":136,"time_elapsed":992989,"internal_node_id":"0.0-1.0-135.0"},{"rt":2885,"responses":"{\"Q0\":\"Ovenbird\"}","bird":["Ovenbird"],"family":["Wood-Warblers"],"class":["860"],"trial_type":"image-multi-choice","trial_index":137,"time_elapsed":996884,"internal_node_id":"0.0-1.0-136.0"},{"rt":6985,"responses":"{\"Q0\":\"Blackburnian Warbler\"}","bird":["Black-and-white Warbler"],"family":["Wood-Warblers"],"class":["864"],"trial_type":"image-multi-choice","trial_index":138,"time_elapsed":1004878,"internal_node_id":"0.0-1.0-137.0"},{"rt":7697,"responses":"{\"Q0\":\"Song Sparrow\"}","bird":["Chipping Sparrow"],"family":["New World Sparrows and Allies"],"class":["769"],"trial_type":"image-multi-choice","trial_index":139,"time_elapsed":1013587,"internal_node_id":"0.0-1.0-138.0"},{"rt":2381,"responses":"{\"Q0\":\"Northern Waterthrush\"}","bird":["Northern Waterthrush"],"family":["Wood-Warblers"],"class":["862"],"trial_type":"image-multi-choice","trial_index":140,"time_elapsed":1016979,"internal_node_id":"0.0-1.0-139.0"},{"rt":2580,"responses":"{\"Q0\":\"Vesper Sparrow\"}","bird":["Vesper Sparrow"],"family":["New World Sparrows and Allies"],"class":["898"],"trial_type":"image-multi-choice","trial_index":141,"time_elapsed":1020568,"internal_node_id":"0.0-1.0-140.0"},{"rt":2329,"responses":"{\"Q0\":\"White-throated Sparrow\"}","bird":["White-throated Sparrow"],"family":["New World Sparrows and Allies"],"class":["764"],"trial_type":"image-multi-choice","trial_index":142,"time_elapsed":1023906,"internal_node_id":"0.0-1.0-141.0"},{"rt":3959,"responses":"{\"Q0\":\"Magnolia Warbler\"}","bird":["Magnolia Warbler"],"family":["Wood-Warblers"],"class":["758"],"trial_type":"image-multi-choice","trial_index":143,"time_elapsed":1028874,"internal_node_id":"0.0-1.0-142.0"},{"rt":3174,"responses":"{\"Q0\":\"Blackburnian Warbler\"}","bird":["Blackburnian Warbler"],"family":["Wood-Warblers"],"class":["874"],"trial_type":"image-multi-choice","trial_index":144,"time_elapsed":1033058,"internal_node_id":"0.0-1.0-143.0"},{"rt":5212,"responses":"{\"Q0\":\"Lark Sparrow\"}","bird":["Lark Sparrow"],"family":["New World Sparrows and Allies"],"class":["899"],"trial_type":"image-multi-choice","trial_index":145,"time_elapsed":1039280,"internal_node_id":"0.0-1.0-144.0"},{"rt":5631,"responses":"{\"Q0\":\"Fox Sparrow\"}","bird":["Song Sparrow"],"family":["New World Sparrows and Allies"],"class":["902"],"trial_type":"image-multi-choice","trial_index":146,"time_elapsed":1045921,"internal_node_id":"0.0-1.0-145.0"},{"rt":2763,"responses":"{\"Q0\":\"White-crowned Sparrow\"}","bird":["White-crowned Sparrow"],"family":["New World Sparrows and Allies"],"class":["766"],"trial_type":"image-multi-choice","trial_index":147,"time_elapsed":1049696,"internal_node_id":"0.0-1.0-146.0"},{"rt":8649,"responses":"{\"Q0\":\"Song Sparrow\"}","bird":["Chipping Sparrow"],"family":["New World Sparrows and Allies"],"class":["769"],"trial_type":"image-multi-choice","trial_index":148,"time_elapsed":1059352,"internal_node_id":"0.0-1.0-147.0"},{"rt":4350,"responses":"{\"Q0\":\"Swamp Sparrow\"}","bird":["Swamp Sparrow"],"family":["New World Sparrows and Allies"],"class":["904"],"trial_type":"image-multi-choice","trial_index":149,"time_elapsed":1064712,"internal_node_id":"0.0-1.0-148.0"},{"rt":2298,"responses":"{\"Q0\":\"Fox Sparrow\"}","bird":["Fox Sparrow"],"family":["New World Sparrows and Allies"],"class":["901"],"trial_type":"image-multi-choice","trial_index":150,"time_elapsed":1068018,"internal_node_id":"0.0-1.0-149.0"},{"rt":2547,"responses":"{\"Q0\":\"Yellow Warbler\"}","bird":["Yellow Warbler"],"family":["Wood-Warblers"],"class":["875"],"trial_type":"image-multi-choice","trial_index":151,"time_elapsed":1071576,"internal_node_id":"0.0-1.0-150.0"},{"rt":2845,"responses":"{\"Q0\":\"White-crowned Sparrow\"}","bird":["White-crowned Sparrow"],"family":["New World Sparrows and Allies"],"class":["766"],"trial_type":"image-multi-choice","trial_index":152,"time_elapsed":1075431,"internal_node_id":"0.0-1.0-151.0"},{"rt":2747,"responses":"{\"Q0\":\"Fox Sparrow\"}","bird":["Song Sparrow"],"family":["New World Sparrows and Allies"],"class":["902"],"trial_type":"image-multi-choice","trial_index":153,"time_elapsed":1079185,"internal_node_id":"0.0-1.0-152.0"},{"rt":3174,"responses":"{\"Q0\":\"Northern Waterthrush\"}","bird":["Northern Waterthrush"],"family":["Wood-Warblers"],"class":["862"],"trial_type":"image-multi-choice","trial_index":154,"time_elapsed":1083369,"internal_node_id":"0.0-1.0-153.0"},{"rt":2422,"responses":"{\"Q0\":\"White-crowned Sparrow\"}","bird":["White-crowned Sparrow"],"family":["New World Sparrows and Allies"],"class":["766"],"trial_type":"image-multi-choice","trial_index":155,"time_elapsed":1086802,"internal_node_id":"0.0-1.0-154.0"},{"rt":2817,"responses":"{\"Q0\":\"Yellow Warbler\"}","bird":["Yellow Warbler"],"family":["Wood-Warblers"],"class":["875"],"trial_type":"image-multi-choice","trial_index":156,"time_elapsed":1090627,"internal_node_id":"0.0-1.0-155.0"},{"rt":1962,"responses":"{\"Q0\":\"White-throated Sparrow\"}","bird":["White-throated Sparrow"],"family":["New World Sparrows and Allies"],"class":["764"],"trial_type":"image-multi-choice","trial_index":157,"time_elapsed":1093597,"internal_node_id":"0.0-1.0-156.0"},{"rt":2072,"responses":"{\"Q0\":\"White-crowned Sparrow\"}","bird":["White-crowned Sparrow"],"family":["New World Sparrows and Allies"],"class":["766"],"trial_type":"image-multi-choice","trial_index":158,"time_elapsed":1096676,"internal_node_id":"0.0-1.0-157.0"},{"rt":4124,"responses":"{\"Q0\":\"Blackburnian Warbler\"}","bird":["Townsend's Warbler"],"family":["Wood-Warblers"],"class":["881"],"trial_type":"image-multi-choice","trial_index":159,"time_elapsed":1101809,"internal_node_id":"0.0-1.0-158.0"},{"rt":5469,"responses":"{\"Q0\":\"Tennessee Warbler\"}","bird":["Tennessee Warbler"],"family":["Wood-Warblers"],"class":["866"],"trial_type":"image-multi-choice","trial_index":160,"time_elapsed":1108288,"internal_node_id":"0.0-1.0-159.0"},{"rt":2455,"responses":"{\"Q0\":\"White-throated Sparrow\"}","bird":["White-throated Sparrow"],"family":["New World Sparrows and Allies"],"class":["764"],"trial_type":"image-multi-choice","trial_index":161,"time_elapsed":1111753,"internal_node_id":"0.0-1.0-160.0"},{"rt":3073,"responses":"{\"Q0\":\"Fox Sparrow\"}","bird":["Fox Sparrow"],"family":["New World Sparrows and Allies"],"class":["901"],"trial_type":"image-multi-choice","trial_index":162,"time_elapsed":1115834,"internal_node_id":"0.0-1.0-161.0"},{"rt":5346,"responses":"{\"Q0\":\"Song Sparrow\"}","bird":["Song Sparrow"],"family":["New World Sparrows and Allies"],"class":["902"],"trial_type":"image-multi-choice","trial_index":163,"time_elapsed":1122190,"internal_node_id":"0.0-1.0-162.0"},{"rt":2126,"responses":"{\"Q0\":\"White-crowned Sparrow\"}","bird":["White-crowned Sparrow"],"family":["New World Sparrows and Allies"],"class":["766"],"trial_type":"image-multi-choice","trial_index":164,"time_elapsed":1125325,"internal_node_id":"0.0-1.0-163.0"},{"rt":2938,"responses":"{\"Q0\":\"Fox Sparrow\"}","bird":["Song Sparrow"],"family":["New World Sparrows and Allies"],"class":["902"],"trial_type":"image-multi-choice","trial_index":165,"time_elapsed":1129274,"internal_node_id":"0.0-1.0-164.0"},{"rt":3809,"responses":"{\"Q0\":\"Chipping Sparrow\"}","bird":["American Tree Sparrow"],"family":["New World Sparrows and Allies"],"class":["894"],"trial_type":"image-multi-choice","trial_index":166,"time_elapsed":1134092,"internal_node_id":"0.0-1.0-165.0"},{"rt":3482,"responses":"{\"Q0\":\"Tennessee Warbler\"}","bird":["Orange-crowned Warbler"],"family":["Wood-Warblers"],"class":["867"],"trial_type":"image-multi-choice","trial_index":167,"time_elapsed":1138583,"internal_node_id":"0.0-1.0-166.0"},{"rt":5338,"responses":"{\"Q0\":\"Lincoln's Sparrow\"}","bird":["Lincoln's Sparrow"],"family":["New World Sparrows and Allies"],"class":["903"],"trial_type":"image-multi-choice","trial_index":168,"time_elapsed":1144931,"internal_node_id":"0.0-1.0-167.0"},{"rt":8088,"responses":"{\"Q0\":\"Blackburnian Warbler\"}","bird":["Blackburnian Warbler"],"family":["Wood-Warblers"],"class":["874"],"trial_type":"image-multi-choice","trial_index":169,"time_elapsed":1154029,"internal_node_id":"0.0-1.0-168.0"},{"rt":2545,"responses":"{\"Q0\":\"White-throated Sparrow\"}","bird":["White-throated Sparrow"],"family":["New World Sparrows and Allies"],"class":["764"],"trial_type":"image-multi-choice","trial_index":170,"time_elapsed":1157585,"internal_node_id":"0.0-1.0-169.0"},{"rt":4877,"responses":"{\"Q0\":\"Fox Sparrow\"}","bird":["Fox Sparrow"],"family":["New World Sparrows and Allies"],"class":["901"],"trial_type":"image-multi-choice","trial_index":171,"time_elapsed":1163471,"internal_node_id":"0.0-1.0-170.0"},{"rt":3614,"responses":"{\"Q0\":\"Chipping Sparrow\"}","bird":["Chipping Sparrow"],"family":["New World Sparrows and Allies"],"class":["769"],"trial_type":"image-multi-choice","trial_index":172,"time_elapsed":1168093,"internal_node_id":"0.0-1.0-171.0"},{"rt":10925,"responses":"{\"Q0\":\"Song Sparrow\"}","bird":["Swamp Sparrow"],"family":["New World Sparrows and Allies"],"class":["904"],"trial_type":"image-multi-choice","trial_index":173,"time_elapsed":1180027,"internal_node_id":"0.0-1.0-172.0"},{"rt":9076,"responses":"{\"Q0\":\"Lincoln's Sparrow\"}","bird":["Lincoln's Sparrow"],"family":["New World Sparrows and Allies"],"class":["903"],"trial_type":"image-multi-choice","trial_index":174,"time_elapsed":1190113,"internal_node_id":"0.0-1.0-173.0"},{"rt":7677,"responses":"{\"Q0\":\"Swamp Sparrow\"}","bird":["Swamp Sparrow"],"family":["New World Sparrows and Allies"],"class":["904"],"trial_type":"image-multi-choice","trial_index":175,"time_elapsed":1198800,"internal_node_id":"0.0-1.0-174.0"},{"rt":5158,"responses":"{\"Q0\":\"Townsend's Warbler\"}","bird":["Townsend's Warbler"],"family":["Wood-Warblers"],"class":["881"],"trial_type":"image-multi-choice","trial_index":176,"time_elapsed":1204966,"internal_node_id":"0.0-1.0-175.0"},{"rt":3895,"responses":"{\"Q0\":\"American Tree Sparrow\"}","bird":["American Tree Sparrow"],"family":["New World Sparrows and Allies"],"class":["894"],"trial_type":"image-multi-choice","trial_index":177,"time_elapsed":1209870,"internal_node_id":"0.0-1.0-176.0"},{"rt":3259,"responses":"{\"Q0\":\"Fox Sparrow\"}","bird":["Fox Sparrow"],"family":["New World Sparrows and Allies"],"class":["901"],"trial_type":"image-multi-choice","trial_index":178,"time_elapsed":1214139,"internal_node_id":"0.0-1.0-177.0"},{"rt":5181,"responses":"{\"Q0\":\"Vesper Sparrow\"}","bird":["Lincoln's Sparrow"],"family":["New World Sparrows and Allies"],"class":["903"],"trial_type":"image-multi-choice","trial_index":179,"time_elapsed":1220329,"internal_node_id":"0.0-1.0-178.0"},{"rt":3409,"responses":"{\"Q0\":\"Magnolia Warbler\"}","bird":["Magnolia Warbler"],"family":["Wood-Warblers"],"class":["758"],"trial_type":"image-multi-choice","trial_index":180,"time_elapsed":1294640,"internal_node_id":"0.0-1.0-179.0"},{"rt":2965,"responses":"{\"Q0\":\"Tennessee Warbler\"}","bird":["Orange-crowned Warbler"],"family":["Wood-Warblers"],"class":["867"],"trial_type":"image-multi-choice","trial_index":181,"time_elapsed":1298615,"internal_node_id":"0.0-1.0-180.0"},{"rt":3887,"responses":"{\"Q0\":\"Yellow Warbler\"}","bird":["Tennessee Warbler"],"family":["Wood-Warblers"],"class":["866"],"trial_type":"image-multi-choice","trial_index":182,"time_elapsed":1303511,"internal_node_id":"0.0-1.0-181.0"},{"rt":4037,"responses":"{\"Q0\":\"Lincoln's Sparrow\"}","bird":["Vesper Sparrow"],"family":["New World Sparrows and Allies"],"class":["898"],"trial_type":"image-multi-choice","trial_index":183,"time_elapsed":1308556,"internal_node_id":"0.0-1.0-182.0"},{"rt":6904,"responses":"{\"Q0\":\"Blackburnian Warbler\"}","bird":["Blackburnian Warbler"],"family":["Wood-Warblers"],"class":["874"],"trial_type":"image-multi-choice","trial_index":184,"time_elapsed":1316469,"internal_node_id":"0.0-1.0-183.0"},{"rt":7844,"responses":"{\"Q0\":\"Song Sparrow\"}","bird":["Lincoln's Sparrow"],"family":["New World Sparrows and Allies"],"class":["903"],"trial_type":"image-multi-choice","trial_index":185,"time_elapsed":1325323,"internal_node_id":"0.0-1.0-184.0"},{"rt":7309,"responses":"{\"Q0\":\"Blackburnian Warbler\"}","bird":["Townsend's Warbler"],"family":["Wood-Warblers"],"class":["881"],"trial_type":"image-multi-choice","trial_index":186,"time_elapsed":1333642,"internal_node_id":"0.0-1.0-185.0"},{"rt":3372,"responses":"{\"Q0\":\"Ovenbird\"}","bird":["Ovenbird"],"family":["Wood-Warblers"],"class":["860"],"trial_type":"image-multi-choice","trial_index":187,"time_elapsed":1338023,"internal_node_id":"0.0-1.0-186.0"},{"rt":5965,"responses":"{\"Q0\":\"Yellow Warbler\"}","bird":["Orange-crowned Warbler"],"family":["Wood-Warblers"],"class":["867"],"trial_type":"image-multi-choice","trial_index":188,"time_elapsed":1344996,"internal_node_id":"0.0-1.0-187.0"},{"rt":3757,"responses":"{\"Q0\":\"Chipping Sparrow\"}","bird":["Chipping Sparrow"],"family":["New World Sparrows and Allies"],"class":["769"],"trial_type":"image-multi-choice","trial_index":189,"time_elapsed":1349766,"internal_node_id":"0.0-1.0-188.0"},{"rt":6277,"responses":"{\"Q0\":\"Chipping Sparrow\"}","bird":["American Tree Sparrow"],"family":["New World Sparrows and Allies"],"class":["894"],"trial_type":"image-multi-choice","trial_index":190,"time_elapsed":1357053,"internal_node_id":"0.0-1.0-189.0"},{"rt":3355,"responses":"{\"Q0\":\"Fox Sparrow\"}","bird":["Vesper Sparrow"],"family":["New World Sparrows and Allies"],"class":["898"],"trial_type":"image-multi-choice","trial_index":191,"time_elapsed":1361417,"internal_node_id":"0.0-1.0-190.0"},{"rt":3395,"responses":"{\"Q0\":\"Lincoln's Sparrow\"}","bird":["Lincoln's Sparrow"],"family":["New World Sparrows and Allies"],"class":["903"],"trial_type":"image-multi-choice","trial_index":192,"time_elapsed":1365821,"internal_node_id":"0.0-1.0-191.0"},{"rt":3031,"responses":"{\"Q0\":\"Tennessee Warbler\"}","bird":["Tennessee Warbler"],"family":["Wood-Warblers"],"class":["866"],"trial_type":"image-multi-choice","trial_index":193,"time_elapsed":1369863,"internal_node_id":"0.0-1.0-192.0"},{"rt":4938,"responses":"{\"Q0\":\"American Tree Sparrow\"}","bird":["American Tree Sparrow"],"family":["New World Sparrows and Allies"],"class":["894"],"trial_type":"image-multi-choice","trial_index":194,"time_elapsed":1375811,"internal_node_id":"0.0-1.0-193.0"},{"rt":4480,"responses":"{\"Q0\":\"Lark Sparrow\"}","bird":["Lark Sparrow"],"family":["New World Sparrows and Allies"],"class":["899"],"trial_type":"image-multi-choice","trial_index":195,"time_elapsed":1381301,"internal_node_id":"0.0-1.0-194.0"},{"rt":2962,"responses":"{\"Q0\":\"Tennessee Warbler\"}","bird":["Tennessee Warbler"],"family":["Wood-Warblers"],"class":["866"],"trial_type":"image-multi-choice","trial_index":196,"time_elapsed":1385273,"internal_node_id":"0.0-1.0-195.0"},{"rt":5044,"responses":"{\"Q0\":\"Northern Waterthrush\"}","bird":["Northern Waterthrush"],"family":["Wood-Warblers"],"class":["862"],"trial_type":"image-multi-choice","trial_index":197,"time_elapsed":1391329,"internal_node_id":"0.0-1.0-196.0"},{"rt":3027,"responses":"{\"Q0\":\"White-throated Sparrow\"}","bird":["White-throated Sparrow"],"family":["New World Sparrows and Allies"],"class":["764"],"trial_type":"image-multi-choice","trial_index":198,"time_elapsed":1395365,"internal_node_id":"0.0-1.0-197.0"},{"rt":2853,"responses":"{\"Q0\":\"Yellow Warbler\"}","bird":["Yellow Warbler"],"family":["Wood-Warblers"],"class":["875"],"trial_type":"image-multi-choice","trial_index":199,"time_elapsed":1399227,"internal_node_id":"0.0-1.0-198.0"},{"rt":3842,"responses":"{\"Q0\":\"White-crowned Sparrow\"}","bird":["White-crowned Sparrow"],"family":["New World Sparrows and Allies"],"class":["766"],"trial_type":"image-multi-choice","trial_index":200,"time_elapsed":1404077,"internal_node_id":"0.0-1.0-199.0"},{"rt":5102,"responses":"{\"Q0\":\"Chipping Sparrow\"}","bird":["American Tree Sparrow"],"family":["New World Sparrows and Allies"],"class":["894"],"trial_type":"image-multi-choice","trial_index":201,"time_elapsed":1410187,"internal_node_id":"0.0-1.0-200.0"},{"rt":2987,"responses":"{\"Q0\":\"Ovenbird\"}","bird":["Ovenbird"],"family":["Wood-Warblers"],"class":["860"],"trial_type":"image-multi-choice","trial_index":202,"time_elapsed":1414183,"internal_node_id":"0.0-1.0-201.0"},{"rt":5322,"responses":"{\"Q0\":\"Magnolia Warbler\"}","bird":["Magnolia Warbler"],"family":["Wood-Warblers"],"class":["758"],"trial_type":"image-multi-choice","trial_index":203,"time_elapsed":1420512,"internal_node_id":"0.0-1.0-202.0"},{"rt":2477,"responses":"{\"Q0\":\"Black-and-white Warbler\"}","bird":["Black-and-white Warbler"],"family":["Wood-Warblers"],"class":["864"],"trial_type":"image-multi-choice","trial_index":204,"time_elapsed":1423998,"internal_node_id":"0.0-1.0-203.0"},{"rt":5388,"responses":"{\"Q0\":\"Northern Waterthrush\"}","bird":["Northern Waterthrush"],"family":["Wood-Warblers"],"class":["862"],"trial_type":"image-multi-choice","trial_index":205,"time_elapsed":1430399,"internal_node_id":"0.0-1.0-204.0"},{"rt":3556,"responses":"{\"Q0\":\"American Tree Sparrow\"}","bird":["American Tree Sparrow"],"family":["New World Sparrows and Allies"],"class":["894"],"trial_type":"image-multi-choice","trial_index":206,"time_elapsed":1434966,"internal_node_id":"0.0-1.0-205.0"},{"rt":3919,"responses":"{\"Q0\":\"Magnolia Warbler\"}","bird":["Magnolia Warbler"],"family":["Wood-Warblers"],"class":["758"],"trial_type":"image-multi-choice","trial_index":207,"time_elapsed":1439894,"internal_node_id":"0.0-1.0-206.0"},{"rt":3462,"responses":"{\"Q0\":\"Blackburnian Warbler\"}","bird":["Blackburnian Warbler"],"family":["Wood-Warblers"],"class":["874"],"trial_type":"image-multi-choice","trial_index":208,"time_elapsed":1444366,"internal_node_id":"0.0-1.0-207.0"},{"rt":8920,"responses":"{\"Q0\":\"Swamp Sparrow\"}","bird":["Swamp Sparrow"],"family":["New World Sparrows and Allies"],"class":["904"],"trial_type":"image-multi-choice","trial_index":209,"time_elapsed":1454294,"internal_node_id":"0.0-1.0-208.0"},{"rt":6475,"responses":"{\"Q0\":\"American Tree Sparrow\"}","bird":["American Tree Sparrow"],"family":["New World Sparrows and Allies"],"class":["894"],"trial_type":"image-multi-choice","trial_index":210,"time_elapsed":1461777,"internal_node_id":"0.0-1.0-209.0"},{"rt":3057,"responses":"{\"Q0\":\"Ovenbird\"}","bird":["Ovenbird"],"family":["Wood-Warblers"],"class":["860"],"trial_type":"image-multi-choice","trial_index":211,"time_elapsed":1465843,"internal_node_id":"0.0-1.0-210.0"},{"rt":5366,"responses":"{\"Q0\":\"Swamp Sparrow\"}","bird":["Swamp Sparrow"],"family":["New World Sparrows and Allies"],"class":["904"],"trial_type":"image-multi-choice","trial_index":212,"time_elapsed":1472218,"internal_node_id":"0.0-1.0-211.0"},{"rt":6511,"responses":"{\"Q0\":\"Song Sparrow\"}","bird":["Song Sparrow"],"family":["New World Sparrows and Allies"],"class":["902"],"trial_type":"image-multi-choice","trial_index":213,"time_elapsed":1479738,"internal_node_id":"0.0-1.0-212.0"},{"rt":4993,"responses":"{\"Q0\":\"Blackburnian Warbler\"}","bird":["Blackburnian Warbler"],"family":["Wood-Warblers"],"class":["874"],"trial_type":"image-multi-choice","trial_index":214,"time_elapsed":1485740,"internal_node_id":"0.0-1.0-213.0"},{"rt":6228,"responses":"{\"Q0\":\"Vesper Sparrow\"}","bird":["Vesper Sparrow"],"family":["New World Sparrows and Allies"],"class":["898"],"trial_type":"image-multi-choice","trial_index":215,"time_elapsed":1492978,"internal_node_id":"0.0-1.0-214.0"},{"rt":3205,"responses":"{\"Q0\":\"Blackburnian Warbler\"}","bird":["Blackburnian Warbler"],"family":["Wood-Warblers"],"class":["874"],"trial_type":"image-multi-choice","trial_index":216,"time_elapsed":1497192,"internal_node_id":"0.0-1.0-215.0"},{"rt":5322,"responses":"{\"Q0\":\"Song Sparrow\"}","bird":["Song Sparrow"],"family":["New World Sparrows and Allies"],"class":["902"],"trial_type":"image-multi-choice","trial_index":217,"time_elapsed":1503523,"internal_node_id":"0.0-1.0-216.0"},{"rt":4284,"responses":"{\"Q0\":\"Tennessee Warbler\"}","bird":["Tennessee Warbler"],"family":["Wood-Warblers"],"class":["866"],"trial_type":"image-multi-choice","trial_index":218,"time_elapsed":1508818,"internal_node_id":"0.0-1.0-217.0"},{"rt":2798,"responses":"{\"Q0\":\"Black-and-white Warbler\"}","bird":["Black-and-white Warbler"],"family":["Wood-Warblers"],"class":["864"],"trial_type":"image-multi-choice","trial_index":219,"time_elapsed":1512624,"internal_node_id":"0.0-1.0-218.0"},{"rt":3525,"responses":"{\"Q0\":\"Ovenbird\"}","bird":["Ovenbird"],"family":["Wood-Warblers"],"class":["860"],"trial_type":"image-multi-choice","trial_index":220,"time_elapsed":1517160,"internal_node_id":"0.0-1.0-219.0"},{"rt":2604,"responses":"{\"Q0\":\"White-throated Sparrow\"}","bird":["White-throated Sparrow"],"family":["New World Sparrows and Allies"],"class":["764"],"trial_type":"image-multi-choice","trial_index":221,"time_elapsed":1520772,"internal_node_id":"0.0-1.0-220.0"},{"rt":6231,"responses":"{\"Q0\":\"Song Sparrow\"}","bird":["Vesper Sparrow"],"family":["New World Sparrows and Allies"],"class":["898"],"trial_type":"image-multi-choice","trial_index":222,"time_elapsed":1528012,"internal_node_id":"0.0-1.0-221.0"},{"rt":4321,"responses":"{\"Q0\":\"American Tree Sparrow\"}","bird":["American Tree Sparrow"],"family":["New World Sparrows and Allies"],"class":["894"],"trial_type":"image-multi-choice","trial_index":223,"time_elapsed":1533340,"internal_node_id":"0.0-1.0-222.0"},{"rt":2607,"responses":"{\"Q0\":\"Yellow Warbler\"}","bird":["Yellow Warbler"],"family":["Wood-Warblers"],"class":["875"],"trial_type":"image-multi-choice","trial_index":224,"time_elapsed":1536957,"internal_node_id":"0.0-1.0-223.0"},{"rt":3388,"responses":"{\"Q0\":\"Northern Waterthrush\"}","bird":["Northern Waterthrush"],"family":["Wood-Warblers"],"class":["862"],"trial_type":"image-multi-choice","trial_index":225,"time_elapsed":1541353,"internal_node_id":"0.0-1.0-224.0"},{"rt":2949,"responses":"{\"Q0\":\"Blackburnian Warbler\"}","bird":["Blackburnian Warbler"],"family":["Wood-Warblers"],"class":["874"],"trial_type":"image-multi-choice","trial_index":226,"time_elapsed":1545309,"internal_node_id":"0.0-1.0-225.0"},{"rt":2124,"responses":"{\"Q0\":\"White-throated Sparrow\"}","bird":["White-throated Sparrow"],"family":["New World Sparrows and Allies"],"class":["764"],"trial_type":"image-multi-choice","trial_index":227,"time_elapsed":1548442,"internal_node_id":"0.0-1.0-226.0"},{"rt":5054,"responses":"{\"Q0\":\"Song Sparrow\"}","bird":["Song Sparrow"],"family":["New World Sparrows and Allies"],"class":["902"],"trial_type":"image-multi-choice","trial_index":228,"time_elapsed":1554506,"internal_node_id":"0.0-1.0-227.0"},{"rt":3182,"responses":"{\"Q0\":\"Ovenbird\"}","bird":["Ovenbird"],"family":["Wood-Warblers"],"class":["860"],"trial_type":"image-multi-choice","trial_index":229,"time_elapsed":1558698,"internal_node_id":"0.0-1.0-228.0"},{"rt":4371,"responses":"{\"Q0\":\"Townsend's Warbler\"}","bird":["Townsend's Warbler"],"family":["Wood-Warblers"],"class":["881"],"trial_type":"image-multi-choice","trial_index":230,"time_elapsed":1564080,"internal_node_id":"0.0-1.0-229.0"},{"rt":3349,"responses":"{\"Q0\":\"Tennessee Warbler\"}","bird":["Nashville Warbler"],"family":["Wood-Warblers"],"class":["868"],"trial_type":"image-multi-choice","trial_index":231,"time_elapsed":1568437,"internal_node_id":"0.0-1.0-230.0"},{"rt":2477,"responses":"{\"Q0\":\"Fox Sparrow\"}","bird":["Fox Sparrow"],"family":["New World Sparrows and Allies"],"class":["901"],"trial_type":"image-multi-choice","trial_index":232,"time_elapsed":1571922,"internal_node_id":"0.0-1.0-231.0"},{"rt":3157,"responses":"{\"Q0\":\"Ovenbird\"}","bird":["Ovenbird"],"family":["Wood-Warblers"],"class":["860"],"trial_type":"image-multi-choice","trial_index":233,"time_elapsed":1576088,"internal_node_id":"0.0-1.0-232.0"},{"rt":3339,"responses":"{\"Q0\":\"Magnolia Warbler\"}","bird":["Magnolia Warbler"],"family":["Wood-Warblers"],"class":["758"],"trial_type":"image-multi-choice","trial_index":234,"time_elapsed":1580437,"internal_node_id":"0.0-1.0-233.0"},{"rt":4874,"responses":"{\"Q0\":\"Chipping Sparrow\"}","bird":["American Tree Sparrow"],"family":["New World Sparrows and Allies"],"class":["894"],"trial_type":"image-multi-choice","trial_index":235,"time_elapsed":1586320,"internal_node_id":"0.0-1.0-234.0"},{"rt":4858,"responses":"{\"Q0\":\"Townsend's Warbler\"}","bird":["Blackburnian Warbler"],"family":["Wood-Warblers"],"class":["874"],"trial_type":"image-multi-choice","trial_index":236,"time_elapsed":1592188,"internal_node_id":"0.0-1.0-235.0"},{"rt":8876,"responses":"{\"Q0\":\"Swamp Sparrow\"}","bird":["Chipping Sparrow"],"family":["New World Sparrows and Allies"],"class":["769"],"trial_type":"image-multi-choice","trial_index":237,"time_elapsed":1602074,"internal_node_id":"0.0-1.0-236.0"},{"rt":2534,"responses":"{\"Q0\":\"Fox Sparrow\"}","bird":["Fox Sparrow"],"family":["New World Sparrows and Allies"],"class":["901"],"trial_type":"image-multi-choice","trial_index":238,"time_elapsed":1605616,"internal_node_id":"0.0-1.0-237.0"},{"rt":4168,"responses":"{\"Q0\":\"Vesper Sparrow\"}","bird":["Vesper Sparrow"],"family":["New World Sparrows and Allies"],"class":["898"],"trial_type":"image-multi-choice","trial_index":239,"time_elapsed":1610794,"internal_node_id":"0.0-1.0-238.0"},{"rt":2859,"responses":"{\"Q0\":\"Northern Waterthrush\"}","bird":["Northern Waterthrush"],"family":["Wood-Warblers"],"class":["862"],"trial_type":"image-multi-choice","trial_index":240,"time_elapsed":1697980,"internal_node_id":"0.0-1.0-239.0"},{"rt":2768,"responses":"{\"Q0\":\"Lark Sparrow\"}","bird":["Lark Sparrow"],"family":["New World Sparrows and Allies"],"class":["899"],"trial_type":"image-multi-choice","trial_index":241,"time_elapsed":1701757,"internal_node_id":"0.0-1.0-240.0"},{"rt":5163,"responses":"{\"Q0\":\"Nashville Warbler\"}","bird":["Nashville Warbler"],"family":["Wood-Warblers"],"class":["868"],"trial_type":"image-multi-choice","trial_index":242,"time_elapsed":1707931,"internal_node_id":"0.0-1.0-241.0"},{"rt":2924,"responses":"{\"Q0\":\"Ovenbird\"}","bird":["Ovenbird"],"family":["Wood-Warblers"],"class":["860"],"trial_type":"image-multi-choice","trial_index":243,"time_elapsed":1711865,"internal_node_id":"0.0-1.0-242.0"},{"rt":3262,"responses":"{\"Q0\":\"Northern Waterthrush\"}","bird":["Northern Waterthrush"],"family":["Wood-Warblers"],"class":["862"],"trial_type":"image-multi-choice","trial_index":244,"time_elapsed":1716135,"internal_node_id":"0.0-1.0-243.0"},{"rt":4522,"responses":"{\"Q0\":\"Tennessee Warbler\"}","bird":["Orange-crowned Warbler"],"family":["Wood-Warblers"],"class":["867"],"trial_type":"image-multi-choice","trial_index":245,"time_elapsed":1721665,"internal_node_id":"0.0-1.0-244.0"},{"rt":3793,"responses":"{\"Q0\":\"Lark Sparrow\"}","bird":["Chipping Sparrow"],"family":["New World Sparrows and Allies"],"class":["769"],"trial_type":"image-multi-choice","trial_index":246,"time_elapsed":1726467,"internal_node_id":"0.0-1.0-245.0"},{"rt":3541,"responses":"{\"Q0\":\"Tennessee Warbler\"}","bird":["Tennessee Warbler"],"family":["Wood-Warblers"],"class":["866"],"trial_type":"image-multi-choice","trial_index":247,"time_elapsed":1731019,"internal_node_id":"0.0-1.0-246.0"},{"rt":1876,"responses":"{\"Q0\":\"Yellow Warbler\"}","bird":["Yellow Warbler"],"family":["Wood-Warblers"],"class":["875"],"trial_type":"image-multi-choice","trial_index":248,"time_elapsed":1733903,"internal_node_id":"0.0-1.0-247.0"},{"rt":4223,"responses":"{\"Q0\":\"Lincoln's Sparrow\"}","bird":["Lincoln's Sparrow"],"family":["New World Sparrows and Allies"],"class":["903"],"trial_type":"image-multi-choice","trial_index":249,"time_elapsed":1739136,"internal_node_id":"0.0-1.0-248.0"},{"rt":8171,"responses":"{\"Q0\":\"Song Sparrow\"}","bird":["Vesper Sparrow"],"family":["New World Sparrows and Allies"],"class":["898"],"trial_type":"image-multi-choice","trial_index":250,"time_elapsed":1748319,"internal_node_id":"0.0-1.0-249.0"},{"rt":6407,"responses":"{\"Q0\":\"Blackburnian Warbler\"}","bird":["Black-and-white Warbler"],"family":["Wood-Warblers"],"class":["864"],"trial_type":"image-multi-choice","trial_index":251,"time_elapsed":1755739,"internal_node_id":"0.0-1.0-250.0"},{"rt":6647,"responses":"{\"Q0\":\"Song Sparrow\"}","bird":["Song Sparrow"],"family":["New World Sparrows and Allies"],"class":["902"],"trial_type":"image-multi-choice","trial_index":252,"time_elapsed":1763395,"internal_node_id":"0.0-1.0-251.0"},{"rt":6481,"responses":"{\"Q0\":\"Chipping Sparrow\"}","bird":["Chipping Sparrow"],"family":["New World Sparrows and Allies"],"class":["769"],"trial_type":"image-multi-choice","trial_index":253,"time_elapsed":1770884,"internal_node_id":"0.0-1.0-252.0"},{"rt":4506,"responses":"{\"Q0\":\"Magnolia Warbler\"}","bird":["Magnolia Warbler"],"family":["Wood-Warblers"],"class":["758"],"trial_type":"image-multi-choice","trial_index":254,"time_elapsed":1776400,"internal_node_id":"0.0-1.0-253.0"},{"rt":3579,"responses":"{\"Q0\":\"Lincoln's Sparrow\"}","bird":["Lincoln's Sparrow"],"family":["New World Sparrows and Allies"],"class":["903"],"trial_type":"image-multi-choice","trial_index":255,"time_elapsed":1780990,"internal_node_id":"0.0-1.0-254.0"},{"rt":2917,"responses":"{\"Q0\":\"White-throated Sparrow\"}","bird":["White-throated Sparrow"],"family":["New World Sparrows and Allies"],"class":["764"],"trial_type":"image-multi-choice","trial_index":256,"time_elapsed":1784916,"internal_node_id":"0.0-1.0-255.0"},{"rt":2657,"responses":"{\"Q0\":\"Fox Sparrow\"}","bird":["Fox Sparrow"],"family":["New World Sparrows and Allies"],"class":["901"],"trial_type":"image-multi-choice","trial_index":257,"time_elapsed":1788584,"internal_node_id":"0.0-1.0-256.0"},{"rt":6591,"responses":"{\"Q0\":\"Blackburnian Warbler\"}","bird":["Black-and-white Warbler"],"family":["Wood-Warblers"],"class":["864"],"trial_type":"image-multi-choice","trial_index":258,"time_elapsed":1796184,"internal_node_id":"0.0-1.0-257.0"},{"rt":3646,"responses":"{\"Q0\":\"Chipping Sparrow\"}","bird":["Chipping Sparrow"],"family":["New World Sparrows and Allies"],"class":["769"],"trial_type":"image-multi-choice","trial_index":259,"time_elapsed":1800838,"internal_node_id":"0.0-1.0-258.0"},{"rt":3317,"responses":"{\"Q0\":\"Tennessee Warbler\"}","bird":["Orange-crowned Warbler"],"family":["Wood-Warblers"],"class":["867"],"trial_type":"image-multi-choice","trial_index":260,"time_elapsed":1805164,"internal_node_id":"0.0-1.0-259.0"},{"rt":3040,"responses":"{\"Q0\":\"Lark Sparrow\"}","bird":["Lark Sparrow"],"family":["New World Sparrows and Allies"],"class":["899"],"trial_type":"image-multi-choice","trial_index":261,"time_elapsed":1809214,"internal_node_id":"0.0-1.0-260.0"},{"rt":6451,"responses":"{\"Q0\":\"Swamp Sparrow\"}","bird":["Lincoln's Sparrow"],"family":["New World Sparrows and Allies"],"class":["903"],"trial_type":"image-multi-choice","trial_index":262,"time_elapsed":1816675,"internal_node_id":"0.0-1.0-261.0"},{"rt":4185,"responses":"{\"Q0\":\"Northern Waterthrush\"}","bird":["Northern Waterthrush"],"family":["Wood-Warblers"],"class":["862"],"trial_type":"image-multi-choice","trial_index":263,"time_elapsed":1821868,"internal_node_id":"0.0-1.0-262.0"},{"rt":3199,"responses":"{\"Q0\":\"Tennessee Warbler\"}","bird":["Nashville Warbler"],"family":["Wood-Warblers"],"class":["868"],"trial_type":"image-multi-choice","trial_index":264,"time_elapsed":1826076,"internal_node_id":"0.0-1.0-263.0"},{"rt":2258,"responses":"{\"Q0\":\"Lark Sparrow\"}","bird":["Lark Sparrow"],"family":["New World Sparrows and Allies"],"class":["899"],"trial_type":"image-multi-choice","trial_index":265,"time_elapsed":1829344,"internal_node_id":"0.0-1.0-264.0"},{"rt":7146,"responses":"{\"Q0\":\"Tennessee Warbler\"}","bird":["Orange-crowned Warbler"],"family":["Wood-Warblers"],"class":["867"],"trial_type":"image-multi-choice","trial_index":266,"time_elapsed":1837499,"internal_node_id":"0.0-1.0-265.0"},{"rt":5439,"responses":"{\"Q0\":\"Magnolia Warbler\"}","bird":["Magnolia Warbler"],"family":["Wood-Warblers"],"class":["758"],"trial_type":"image-multi-choice","trial_index":267,"time_elapsed":1843948,"internal_node_id":"0.0-1.0-266.0"},{"rt":3942,"responses":"{\"Q0\":\"Tennessee Warbler\"}","bird":["Orange-crowned Warbler"],"family":["Wood-Warblers"],"class":["867"],"trial_type":"image-multi-choice","trial_index":268,"time_elapsed":1848899,"internal_node_id":"0.0-1.0-267.0"},{"rt":2477,"responses":"{\"Q0\":\"Yellow Warbler\"}","bird":["Yellow Warbler"],"family":["Wood-Warblers"],"class":["875"],"trial_type":"image-multi-choice","trial_index":269,"time_elapsed":1852386,"internal_node_id":"0.0-1.0-268.0"},{"rt":4750,"responses":"{\"Q0\":\"Tennessee Warbler\"}","bird":["Orange-crowned Warbler"],"family":["Wood-Warblers"],"class":["867"],"trial_type":"image-multi-choice","trial_index":270,"time_elapsed":1858147,"internal_node_id":"0.0-1.0-269.0"},{"rt":5212,"responses":"{\"Q0\":\"Lincoln's Sparrow\"}","bird":["Lincoln's Sparrow"],"family":["New World Sparrows and Allies"],"class":["903"],"trial_type":"image-multi-choice","trial_index":271,"time_elapsed":1864366,"internal_node_id":"0.0-1.0-270.0"},{"rt":4538,"responses":"{\"Q0\":\"Lark Sparrow\"}","bird":["Lark Sparrow"],"family":["New World Sparrows and Allies"],"class":["899"],"trial_type":"image-multi-choice","trial_index":272,"time_elapsed":1869911,"internal_node_id":"0.0-1.0-271.0"},{"rt":8455,"responses":"{\"Q0\":\"Lincoln's Sparrow\"}","bird":["Lincoln's Sparrow"],"family":["New World Sparrows and Allies"],"class":["903"],"trial_type":"image-multi-choice","trial_index":273,"time_elapsed":1879376,"internal_node_id":"0.0-1.0-272.0"},{"rt":4349,"responses":"{\"Q0\":\"Nashville Warbler\"}","bird":["Nashville Warbler"],"family":["Wood-Warblers"],"class":["868"],"trial_type":"image-multi-choice","trial_index":274,"time_elapsed":1884735,"internal_node_id":"0.0-1.0-273.0"},{"rt":2785,"responses":"{\"Q0\":\"Lark Sparrow\"}","bird":["Lark Sparrow"],"family":["New World Sparrows and Allies"],"class":["899"],"trial_type":"image-multi-choice","trial_index":275,"time_elapsed":1888528,"internal_node_id":"0.0-1.0-274.0"},{"rt":5378,"responses":"{\"Q0\":\"Chipping Sparrow\"}","bird":["Chipping Sparrow"],"family":["New World Sparrows and Allies"],"class":["769"],"trial_type":"image-multi-choice","trial_index":276,"time_elapsed":1894920,"internal_node_id":"0.0-1.0-275.0"},{"rt":2688,"responses":"{\"Q0\":\"White-throated Sparrow\"}","bird":["White-throated Sparrow"],"family":["New World Sparrows and Allies"],"class":["764"],"trial_type":"image-multi-choice","trial_index":277,"time_elapsed":1898618,"internal_node_id":"0.0-1.0-276.0"},{"rt":9704,"responses":"{\"Q0\":\"American Tree Sparrow\"}","bird":["Song Sparrow"],"family":["New World Sparrows and Allies"],"class":["902"],"trial_type":"image-multi-choice","trial_index":278,"time_elapsed":1909330,"internal_node_id":"0.0-1.0-277.0"},{"rt":2565,"responses":"{\"Q0\":\"Ovenbird\"}","bird":["Ovenbird"],"family":["Wood-Warblers"],"class":["860"],"trial_type":"image-multi-choice","trial_index":279,"time_elapsed":1912905,"internal_node_id":"0.0-1.0-278.0"},{"rt":4612,"responses":"{\"Q0\":\"Lark Sparrow\"}","bird":["Lark Sparrow"],"family":["New World Sparrows and Allies"],"class":["899"],"trial_type":"image-multi-choice","trial_index":280,"time_elapsed":1918528,"internal_node_id":"0.0-1.0-279.0"},{"rt":5603,"responses":"{\"Q0\":\"Chipping Sparrow\"}","bird":["Chipping Sparrow"],"family":["New World Sparrows and Allies"],"class":["769"],"trial_type":"image-multi-choice","trial_index":281,"time_elapsed":1925142,"internal_node_id":"0.0-1.0-280.0"},{"rt":4100,"responses":"{\"Q0\":\"Lark Sparrow\"}","bird":["Lark Sparrow"],"family":["New World Sparrows and Allies"],"class":["899"],"trial_type":"image-multi-choice","trial_index":282,"time_elapsed":1930250,"internal_node_id":"0.0-1.0-281.0"},{"rt":6177,"responses":"{\"Q0\":\"Song Sparrow\"}","bird":["Song Sparrow"],"family":["New World Sparrows and Allies"],"class":["902"],"trial_type":"image-multi-choice","trial_index":283,"time_elapsed":1937436,"internal_node_id":"0.0-1.0-282.0"},{"rt":4454,"responses":"{\"Q0\":\"White-throated Sparrow\"}","bird":["White-throated Sparrow"],"family":["New World Sparrows and Allies"],"class":["764"],"trial_type":"image-multi-choice","trial_index":284,"time_elapsed":1942898,"internal_node_id":"0.0-1.0-283.0"},{"rt":3951,"responses":"{\"Q0\":\"Magnolia Warbler\"}","bird":["Magnolia Warbler"],"family":["Wood-Warblers"],"class":["758"],"trial_type":"image-multi-choice","trial_index":285,"time_elapsed":1947858,"internal_node_id":"0.0-1.0-284.0"},{"rt":5539,"responses":"{\"Q0\":\"Tennessee Warbler\"}","bird":["Orange-crowned Warbler"],"family":["Wood-Warblers"],"class":["867"],"trial_type":"image-multi-choice","trial_index":286,"time_elapsed":1954406,"internal_node_id":"0.0-1.0-285.0"},{"rt":4116,"responses":"{\"Q0\":\"Lincoln's Sparrow\"}","bird":["Lincoln's Sparrow"],"family":["New World Sparrows and Allies"],"class":["903"],"trial_type":"image-multi-choice","trial_index":287,"time_elapsed":1959531,"internal_node_id":"0.0-1.0-286.0"},{"rt":2893,"responses":"{\"Q0\":\"Lark Sparrow\"}","bird":["Lark Sparrow"],"family":["New World Sparrows and Allies"],"class":["899"],"trial_type":"image-multi-choice","trial_index":288,"time_elapsed":1963432,"internal_node_id":"0.0-1.0-287.0"},{"rt":3361,"responses":"{\"Q0\":\"Blackburnian Warbler\"}","bird":["Townsend's Warbler"],"family":["Wood-Warblers"],"class":["881"],"trial_type":"image-multi-choice","trial_index":289,"time_elapsed":1967806,"internal_node_id":"0.0-1.0-288.0"},{"rt":2610,"responses":"{\"Q0\":\"Black-and-white Warbler\"}","bird":["Black-and-white Warbler"],"family":["Wood-Warblers"],"class":["864"],"trial_type":"image-multi-choice","trial_index":290,"time_elapsed":1971425,"internal_node_id":"0.0-1.0-289.0"},{"rt":3722,"responses":"{\"Q0\":\"Tennessee Warbler\"}","bird":["Tennessee Warbler"],"family":["Wood-Warblers"],"class":["866"],"trial_type":"image-multi-choice","trial_index":291,"time_elapsed":1976156,"internal_node_id":"0.0-1.0-290.0"},{"rt":5142,"responses":"{\"Q0\":\"Chipping Sparrow\"}","bird":["American Tree Sparrow"],"family":["New World Sparrows and Allies"],"class":["894"],"trial_type":"image-multi-choice","trial_index":292,"time_elapsed":1982307,"internal_node_id":"0.0-1.0-291.0"},{"rt":3281,"responses":"{\"Q0\":\"Chipping Sparrow\"}","bird":["Chipping Sparrow"],"family":["New World Sparrows and Allies"],"class":["769"],"trial_type":"image-multi-choice","trial_index":293,"time_elapsed":1986600,"internal_node_id":"0.0-1.0-292.0"},{"rt":2768,"responses":"{\"Q0\":\"Lark Sparrow\"}","bird":["Lark Sparrow"],"family":["New World Sparrows and Allies"],"class":["899"],"trial_type":"image-multi-choice","trial_index":294,"time_elapsed":1990378,"internal_node_id":"0.0-1.0-293.0"},{"rt":6176,"responses":"{\"Q0\":\"Magnolia Warbler\"}","bird":["Magnolia Warbler"],"family":["Wood-Warblers"],"class":["758"],"trial_type":"image-multi-choice","trial_index":295,"time_elapsed":1997562,"internal_node_id":"0.0-1.0-294.0"},{"rt":2108,"responses":"{\"Q0\":\"Yellow Warbler\"}","bird":["Yellow Warbler"],"family":["Wood-Warblers"],"class":["875"],"trial_type":"image-multi-choice","trial_index":296,"time_elapsed":2000680,"internal_node_id":"0.0-1.0-295.0"},{"rt":2430,"responses":"{\"Q0\":\"White-crowned Sparrow\"}","bird":["White-crowned Sparrow"],"family":["New World Sparrows and Allies"],"class":["766"],"trial_type":"image-multi-choice","trial_index":297,"time_elapsed":2004121,"internal_node_id":"0.0-1.0-296.0"},{"rt":5284,"responses":"{\"Q0\":\"Song Sparrow\"}","bird":["Swamp Sparrow"],"family":["New World Sparrows and Allies"],"class":["904"],"trial_type":"image-multi-choice","trial_index":298,"time_elapsed":2010413,"internal_node_id":"0.0-1.0-297.0"},{"rt":4702,"responses":"{\"Q0\":\"Nashville Warbler\"}","bird":["Orange-crowned Warbler"],"family":["Wood-Warblers"],"class":["867"],"trial_type":"image-multi-choice","trial_index":299,"time_elapsed":2016125,"internal_node_id":"0.0-1.0-298.0"},{"rt":3350,"responses":"{\"Q0\":\"Vesper Sparrow\"}","bird":["Vesper Sparrow"],"family":["New World Sparrows and Allies"],"class":["898"],"trial_type":"image-multi-choice","trial_index":300,"time_elapsed":2040066,"internal_node_id":"0.0-1.0-299.0"},{"view_history":"[{\"page_index\":0,\"viewing_time\":2189}]","rt":2190,"trial_type":"instructions","trial_index":301,"time_elapsed":2043256,"internal_node_id":"0.0-2.0"}]