"view_history","rt","trial_type","trial_index","time_elapsed","internal_node_id","responses","bird","family","class"
"[{""page_index"":0,""viewing_time"":37903}]","37904","instructions","0","37906","0.0-0.0","","","",""
"","21736","image-multi-choice","1","60707","0.0-1.0-0.0","{""Q0"":""Blackburnian Warbler""}","Townsend's Warbler","Wood-Warblers","881"
"","17606","image-multi-choice","2","79350","0.0-1.0-1.0","{""Q0"":""Vesper Sparrow""}","Lark Sparrow","New World Sparrows and Allies","899"
"","4112","image-multi-choice","3","84501","0.0-1.0-2.0","{""Q0"":""White-crowned Sparrow""}","White-crowned Sparrow","New World Sparrows and Allies","766"
"","15857","image-multi-choice","4","101389","0.0-1.0-3.0","{""Q0"":""Lark Sparrow""}","Lark Sparrow","New World Sparrows and Allies","899"
"","4108","image-multi-choice","5","106532","0.0-1.0-4.0","{""Q0"":""White-throated Sparrow""}","White-throated Sparrow","New World Sparrows and Allies","764"
"","3577","image-multi-choice","6","111144","0.0-1.0-5.0","{""Q0"":""White-crowned Sparrow""}","White-crowned Sparrow","New World Sparrows and Allies","766"
"","15261","image-multi-choice","7","127443","0.0-1.0-6.0","{""Q0"":""Tennessee Warbler""}","Tennessee Warbler","Wood-Warblers","866"
"","2475","image-multi-choice","8","130955","0.0-1.0-7.0","{""Q0"":""White-crowned Sparrow""}","White-crowned Sparrow","New World Sparrows and Allies","766"
"","5245","image-multi-choice","9","137226","0.0-1.0-8.0","{""Q0"":""Nashville Warbler""}","Orange-crowned Warbler","Wood-Warblers","867"
"","10374","image-multi-choice","10","148635","0.0-1.0-9.0","{""Q0"":""Lincoln's Sparrow""}","Swamp Sparrow","New World Sparrows and Allies","904"
"","12571","image-multi-choice","11","162242","0.0-1.0-10.0","{""Q0"":""Tennessee Warbler""}","Orange-crowned Warbler","Wood-Warblers","867"
"","6209","image-multi-choice","12","169485","0.0-1.0-11.0","{""Q0"":""White-crowned Sparrow""}","White-crowned Sparrow","New World Sparrows and Allies","766"
"","5940","image-multi-choice","13","176452","0.0-1.0-12.0","{""Q0"":""Townsend's Warbler""}","Townsend's Warbler","Wood-Warblers","881"
"","11777","image-multi-choice","14","189272","0.0-1.0-13.0","{""Q0"":""Lincoln's Sparrow""}","Lincoln's Sparrow","New World Sparrows and Allies","903"
"","3098","image-multi-choice","15","193399","0.0-1.0-14.0","{""Q0"":""Ovenbird""}","Ovenbird","Wood-Warblers","860"
"","5533","image-multi-choice","16","199959","0.0-1.0-15.0","{""Q0"":""Tennessee Warbler""}","Tennessee Warbler","Wood-Warblers","866"
"","5535","image-multi-choice","17","206523","0.0-1.0-16.0","{""Q0"":""Song Sparrow""}","Vesper Sparrow","New World Sparrows and Allies","898"
"","17669","image-multi-choice","18","225230","0.0-1.0-17.0","{""Q0"":""Orange-crowned Warbler""}","Tennessee Warbler","Wood-Warblers","866"
"","11052","image-multi-choice","19","237328","0.0-1.0-18.0","{""Q0"":""Vesper Sparrow""}","Vesper Sparrow","New World Sparrows and Allies","898"
"","3624","image-multi-choice","20","241983","0.0-1.0-19.0","{""Q0"":""Song Sparrow""}","Song Sparrow","New World Sparrows and Allies","902"
"","4665","image-multi-choice","21","247679","0.0-1.0-20.0","{""Q0"":""Magnolia Warbler""}","Magnolia Warbler","Wood-Warblers","758"
"","3667","image-multi-choice","22","252384","0.0-1.0-21.0","{""Q0"":""Tennessee Warbler""}","Orange-crowned Warbler","Wood-Warblers","867"
"","3271","image-multi-choice","23","256692","0.0-1.0-22.0","{""Q0"":""Townsend's Warbler""}","Townsend's Warbler","Wood-Warblers","881"
"","2523","image-multi-choice","24","260255","0.0-1.0-23.0","{""Q0"":""Ovenbird""}","Ovenbird","Wood-Warblers","860"
"","4634","image-multi-choice","25","265911","0.0-1.0-24.0","{""Q0"":""Lincoln's Sparrow""}","Lincoln's Sparrow","New World Sparrows and Allies","903"
"","2610","image-multi-choice","26","269557","0.0-1.0-25.0","{""Q0"":""White-throated Sparrow""}","White-throated Sparrow","New World Sparrows and Allies","764"
"","2821","image-multi-choice","27","273399","0.0-1.0-26.0","{""Q0"":""Ovenbird""}","Ovenbird","Wood-Warblers","860"
"","8487","image-multi-choice","28","282902","0.0-1.0-27.0","{""Q0"":""American Tree Sparrow""}","Chipping Sparrow","New World Sparrows and Allies","769"
"","4328","image-multi-choice","29","288251","0.0-1.0-28.0","{""Q0"":""Fox Sparrow""}","Fox Sparrow","New World Sparrows and Allies","901"
"","3661","image-multi-choice","30","292945","0.0-1.0-29.0","{""Q0"":""Magnolia Warbler""}","Magnolia Warbler","Wood-Warblers","758"
"","3595","image-multi-choice","31","297555","0.0-1.0-30.0","{""Q0"":""Northern Waterthrush""}","Northern Waterthrush","Wood-Warblers","862"
"","4217","image-multi-choice","32","302804","0.0-1.0-31.0","{""Q0"":""Tennessee Warbler""}","Tennessee Warbler","Wood-Warblers","866"
"","3680","image-multi-choice","33","307500","0.0-1.0-32.0","{""Q0"":""Magnolia Warbler""}","Magnolia Warbler","Wood-Warblers","758"
"","7593","image-multi-choice","34","316128","0.0-1.0-33.0","{""Q0"":""Fox Sparrow""}","Song Sparrow","New World Sparrows and Allies","902"
"","5790","image-multi-choice","35","322954","0.0-1.0-34.0","{""Q0"":""Lark Sparrow""}","Lark Sparrow","New World Sparrows and Allies","899"
"","27329","image-multi-choice","36","351305","0.0-1.0-35.0","{""Q0"":""Northern Waterthrush""}","Nashville Warbler","Wood-Warblers","868"
"","4684","image-multi-choice","37","357020","0.0-1.0-36.0","{""Q0"":""Northern Waterthrush""}","Northern Waterthrush","Wood-Warblers","862"
"","6070","image-multi-choice","38","364112","0.0-1.0-37.0","{""Q0"":""Chipping Sparrow""}","Chipping Sparrow","New World Sparrows and Allies","769"
"","2863","image-multi-choice","39","368005","0.0-1.0-38.0","{""Q0"":""Yellow Warbler""}","Yellow Warbler","Wood-Warblers","875"
"","2771","image-multi-choice","40","371810","0.0-1.0-39.0","{""Q0"":""Ovenbird""}","Ovenbird","Wood-Warblers","860"
"","3060","image-multi-choice","41","375904","0.0-1.0-40.0","{""Q0"":""Black-and-white Warbler""}","Black-and-white Warbler","Wood-Warblers","864"
"","9149","image-multi-choice","42","386073","0.0-1.0-41.0","{""Q0"":""Tennessee Warbler""}","Tennessee Warbler","Wood-Warblers","866"
"","13211","image-multi-choice","43","400314","0.0-1.0-42.0","{""Q0"":""Lincoln's Sparrow""}","Song Sparrow","New World Sparrows and Allies","902"
"","6408","image-multi-choice","44","407750","0.0-1.0-43.0","{""Q0"":""Blackburnian Warbler""}","Blackburnian Warbler","Wood-Warblers","874"
"","2952","image-multi-choice","45","411732","0.0-1.0-44.0","{""Q0"":""Black-and-white Warbler""}","Black-and-white Warbler","Wood-Warblers","864"
"","3920","image-multi-choice","46","416684","0.0-1.0-45.0","{""Q0"":""Magnolia Warbler""}","Magnolia Warbler","Wood-Warblers","758"
"","2383","image-multi-choice","47","420099","0.0-1.0-46.0","{""Q0"":""Ovenbird""}","Ovenbird","Wood-Warblers","860"
"","4863","image-multi-choice","48","425993","0.0-1.0-47.0","{""Q0"":""Lincoln's Sparrow""}","Vesper Sparrow","New World Sparrows and Allies","898"
"","4070","image-multi-choice","49","431093","0.0-1.0-48.0","{""Q0"":""Lark Sparrow""}","Lark Sparrow","New World Sparrows and Allies","899"
"","2792","image-multi-choice","50","434910","0.0-1.0-49.0","{""Q0"":""Black-and-white Warbler""}","Black-and-white Warbler","Wood-Warblers","864"
"","5794","image-multi-choice","51","441743","0.0-1.0-50.0","{""Q0"":""Townsend's Warbler""}","Townsend's Warbler","Wood-Warblers","881"
"","14258","image-multi-choice","52","457026","0.0-1.0-51.0","{""Q0"":""Orange-crowned Warbler""}","Nashville Warbler","Wood-Warblers","868"
"","7713","image-multi-choice","53","465770","0.0-1.0-52.0","{""Q0"":""American Tree Sparrow""}","Chipping Sparrow","New World Sparrows and Allies","769"
"","3769","image-multi-choice","54","470568","0.0-1.0-53.0","{""Q0"":""Swamp Sparrow""}","Swamp Sparrow","New World Sparrows and Allies","904"
"","2289","image-multi-choice","55","473886","0.0-1.0-54.0","{""Q0"":""White-crowned Sparrow""}","White-crowned Sparrow","New World Sparrows and Allies","766"
"","3570","image-multi-choice","56","478495","0.0-1.0-55.0","{""Q0"":""Black-and-white Warbler""}","Black-and-white Warbler","Wood-Warblers","864"
"","5134","image-multi-choice","57","484662","0.0-1.0-56.0","{""Q0"":""Tennessee Warbler""}","Tennessee Warbler","Wood-Warblers","866"
"","6050","image-multi-choice","58","491747","0.0-1.0-57.0","{""Q0"":""Townsend's Warbler""}","Townsend's Warbler","Wood-Warblers","881"
"","3912","image-multi-choice","59","496696","0.0-1.0-58.0","{""Q0"":""Nashville Warbler""}","Nashville Warbler","Wood-Warblers","868"
"","5879","image-multi-choice","60","512930","0.0-1.0-59.0","{""Q0"":""Lincoln's Sparrow""}","Lincoln's Sparrow","New World Sparrows and Allies","903"
"","7754","image-multi-choice","61","521717","0.0-1.0-60.0","{""Q0"":""Fox Sparrow""}","Song Sparrow","New World Sparrows and Allies","902"
"","6048","image-multi-choice","62","528803","0.0-1.0-61.0","{""Q0"":""Yellow Warbler""}","Yellow Warbler","Wood-Warblers","875"
"","3297","image-multi-choice","63","533125","0.0-1.0-62.0","{""Q0"":""White-throated Sparrow""}","White-throated Sparrow","New World Sparrows and Allies","764"
"","4235","image-multi-choice","64","538402","0.0-1.0-63.0","{""Q0"":""Tennessee Warbler""}","Tennessee Warbler","Wood-Warblers","866"
"","3991","image-multi-choice","65","543425","0.0-1.0-64.0","{""Q0"":""Lincoln's Sparrow""}","Lincoln's Sparrow","New World Sparrows and Allies","903"
"","6683","image-multi-choice","66","551117","0.0-1.0-65.0","{""Q0"":""Blackburnian Warbler""}","Blackburnian Warbler","Wood-Warblers","874"
"","3707","image-multi-choice","67","555853","0.0-1.0-66.0","{""Q0"":""Northern Waterthrush""}","Northern Waterthrush","Wood-Warblers","862"
"","4366","image-multi-choice","68","561231","0.0-1.0-67.0","{""Q0"":""Yellow Warbler""}","Yellow Warbler","Wood-Warblers","875"
"","3816","image-multi-choice","69","566082","0.0-1.0-68.0","{""Q0"":""Lincoln's Sparrow""}","Lincoln's Sparrow","New World Sparrows and Allies","903"
"","6037","image-multi-choice","70","573157","0.0-1.0-69.0","{""Q0"":""American Tree Sparrow""}","American Tree Sparrow","New World Sparrows and Allies","894"
"","7841","image-multi-choice","71","582027","0.0-1.0-70.0","{""Q0"":""Orange-crowned Warbler""}","Orange-crowned Warbler","Wood-Warblers","867"
"","3918","image-multi-choice","72","586981","0.0-1.0-71.0","{""Q0"":""Lincoln's Sparrow""}","Lincoln's Sparrow","New World Sparrows and Allies","903"
"","7945","image-multi-choice","73","595961","0.0-1.0-72.0","{""Q0"":""Townsend's Warbler""}","Magnolia Warbler","Wood-Warblers","758"
"","3667","image-multi-choice","74","600661","0.0-1.0-73.0","{""Q0"":""Lincoln's Sparrow""}","Lincoln's Sparrow","New World Sparrows and Allies","903"
"","2312","image-multi-choice","75","604006","0.0-1.0-74.0","{""Q0"":""Yellow Warbler""}","Yellow Warbler","Wood-Warblers","875"
"","2976","image-multi-choice","76","608000","0.0-1.0-75.0","{""Q0"":""White-crowned Sparrow""}","White-crowned Sparrow","New World Sparrows and Allies","766"
"","7882","image-multi-choice","77","616895","0.0-1.0-76.0","{""Q0"":""Nashville Warbler""}","Nashville Warbler","Wood-Warblers","868"
"","4377","image-multi-choice","78","622308","0.0-1.0-77.0","{""Q0"":""American Tree Sparrow""}","American Tree Sparrow","New World Sparrows and Allies","894"
"","8417","image-multi-choice","79","631761","0.0-1.0-78.0","{""Q0"":""Townsend's Warbler""}","Townsend's Warbler","Wood-Warblers","881"
"","4334","image-multi-choice","80","637127","0.0-1.0-79.0","{""Q0"":""Chipping Sparrow""}","Chipping Sparrow","New World Sparrows and Allies","769"
"","1980","image-multi-choice","81","640143","0.0-1.0-80.0","{""Q0"":""White-throated Sparrow""}","White-throated Sparrow","New World Sparrows and Allies","764"
"","2766","image-multi-choice","82","643939","0.0-1.0-81.0","{""Q0"":""Ovenbird""}","Ovenbird","Wood-Warblers","860"
"","2392","image-multi-choice","83","647347","0.0-1.0-82.0","{""Q0"":""White-crowned Sparrow""}","White-crowned Sparrow","New World Sparrows and Allies","766"
"","7383","image-multi-choice","84","655765","0.0-1.0-83.0","{""Q0"":""Townsend's Warbler""}","Magnolia Warbler","Wood-Warblers","758"
"","2225","image-multi-choice","85","659021","0.0-1.0-84.0","{""Q0"":""Yellow Warbler""}","Yellow Warbler","Wood-Warblers","875"
"","3593","image-multi-choice","86","663646","0.0-1.0-85.0","{""Q0"":""Lark Sparrow""}","Lark Sparrow","New World Sparrows and Allies","899"
"","3722","image-multi-choice","87","668407","0.0-1.0-86.0","{""Q0"":""Lincoln's Sparrow""}","Lincoln's Sparrow","New World Sparrows and Allies","903"
"","3172","image-multi-choice","88","672606","0.0-1.0-87.0","{""Q0"":""Black-and-white Warbler""}","Black-and-white Warbler","Wood-Warblers","864"
"","5095","image-multi-choice","89","678725","0.0-1.0-88.0","{""Q0"":""White-crowned Sparrow""}","White-crowned Sparrow","New World Sparrows and Allies","766"
"","4794","image-multi-choice","90","684555","0.0-1.0-89.0","{""Q0"":""Townsend's Warbler""}","Townsend's Warbler","Wood-Warblers","881"
"","2910","image-multi-choice","91","688491","0.0-1.0-90.0","{""Q0"":""White-throated Sparrow""}","White-throated Sparrow","New World Sparrows and Allies","764"
"","7872","image-multi-choice","92","697398","0.0-1.0-91.0","{""Q0"":""Magnolia Warbler""}","Magnolia Warbler","Wood-Warblers","758"
"","6726","image-multi-choice","93","705151","0.0-1.0-92.0","{""Q0"":""Lincoln's Sparrow""}","Lincoln's Sparrow","New World Sparrows and Allies","903"
"","5617","image-multi-choice","94","711780","0.0-1.0-93.0","{""Q0"":""Blackburnian Warbler""}","Blackburnian Warbler","Wood-Warblers","874"
"","5670","image-multi-choice","95","718485","0.0-1.0-94.0","{""Q0"":""Vesper Sparrow""}","Vesper Sparrow","New World Sparrows and Allies","898"
"","4586","image-multi-choice","96","724094","0.0-1.0-95.0","{""Q0"":""Lark Sparrow""}","Lark Sparrow","New World Sparrows and Allies","899"
"","3119","image-multi-choice","97","728239","0.0-1.0-96.0","{""Q0"":""Swamp Sparrow""}","Swamp Sparrow","New World Sparrows and Allies","904"
"","3747","image-multi-choice","98","733026","0.0-1.0-97.0","{""Q0"":""Northern Waterthrush""}","Northern Waterthrush","Wood-Warblers","862"
"","3377","image-multi-choice","99","737436","0.0-1.0-98.0","{""Q0"":""Ovenbird""}","Ovenbird","Wood-Warblers","860"
"","3014","image-multi-choice","100","741473","0.0-1.0-99.0","{""Q0"":""White-throated Sparrow""}","White-throated Sparrow","New World Sparrows and Allies","764"
"","6105","image-multi-choice","101","748608","0.0-1.0-100.0","{""Q0"":""Nashville Warbler""}","Nashville Warbler","Wood-Warblers","868"
"","4976","image-multi-choice","102","754619","0.0-1.0-101.0","{""Q0"":""Magnolia Warbler""}","Magnolia Warbler","Wood-Warblers","758"
"","6919","image-multi-choice","103","762573","0.0-1.0-102.0","{""Q0"":""Swamp Sparrow""}","Swamp Sparrow","New World Sparrows and Allies","904"
"","4226","image-multi-choice","104","767839","0.0-1.0-103.0","{""Q0"":""Blackburnian Warbler""}","Blackburnian Warbler","Wood-Warblers","874"
"","3097","image-multi-choice","105","771973","0.0-1.0-104.0","{""Q0"":""Northern Waterthrush""}","Northern Waterthrush","Wood-Warblers","862"
"","5767","image-multi-choice","106","778775","0.0-1.0-105.0","{""Q0"":""Swamp Sparrow""}","Swamp Sparrow","New World Sparrows and Allies","904"
"","3778","image-multi-choice","107","783588","0.0-1.0-106.0","{""Q0"":""Song Sparrow""}","Song Sparrow","New World Sparrows and Allies","902"
"","2763","image-multi-choice","108","787385","0.0-1.0-107.0","{""Q0"":""Black-and-white Warbler""}","Black-and-white Warbler","Wood-Warblers","864"
"","3463","image-multi-choice","109","791882","0.0-1.0-108.0","{""Q0"":""Blackburnian Warbler""}","Blackburnian Warbler","Wood-Warblers","874"
"","6378","image-multi-choice","110","799286","0.0-1.0-109.0","{""Q0"":""Orange-crowned Warbler""}","Nashville Warbler","Wood-Warblers","868"
"","3873","image-multi-choice","111","804190","0.0-1.0-110.0","{""Q0"":""Lark Sparrow""}","Chipping Sparrow","New World Sparrows and Allies","769"
"","3420","image-multi-choice","112","808626","0.0-1.0-111.0","{""Q0"":""American Tree Sparrow""}","American Tree Sparrow","New World Sparrows and Allies","894"
"","3155","image-multi-choice","113","812813","0.0-1.0-112.0","{""Q0"":""Northern Waterthrush""}","Northern Waterthrush","Wood-Warblers","862"
"","2366","image-multi-choice","114","816208","0.0-1.0-113.0","{""Q0"":""Yellow Warbler""}","Yellow Warbler","Wood-Warblers","875"
"","3411","image-multi-choice","115","820645","0.0-1.0-114.0","{""Q0"":""Tennessee Warbler""}","Tennessee Warbler","Wood-Warblers","866"
"","3632","image-multi-choice","116","825318","0.0-1.0-115.0","{""Q0"":""Lincoln's Sparrow""}","Lincoln's Sparrow","New World Sparrows and Allies","903"
"","7723","image-multi-choice","117","834058","0.0-1.0-116.0","{""Q0"":""Black-and-white Warbler""}","Black-and-white Warbler","Wood-Warblers","864"
"","6816","image-multi-choice","118","841912","0.0-1.0-117.0","{""Q0"":""Swamp Sparrow""}","Song Sparrow","New World Sparrows and Allies","902"
"","3311","image-multi-choice","119","846249","0.0-1.0-118.0","{""Q0"":""Lincoln's Sparrow""}","Lincoln's Sparrow","New World Sparrows and Allies","903"
"","2954","image-multi-choice","120","860207","0.0-1.0-119.0","{""Q0"":""Blackburnian Warbler""}","Blackburnian Warbler","Wood-Warblers","874"
"","13302","image-multi-choice","121","874529","0.0-1.0-120.0","{""Q0"":""Nashville Warbler""}","Nashville Warbler","Wood-Warblers","868"
"","4404","image-multi-choice","122","879972","0.0-1.0-121.0","{""Q0"":""Vesper Sparrow""}","Vesper Sparrow","New World Sparrows and Allies","898"
"","5709","image-multi-choice","123","886697","0.0-1.0-122.0","{""Q0"":""Blackburnian Warbler""}","Townsend's Warbler","Wood-Warblers","881"
"","3297","image-multi-choice","124","891019","0.0-1.0-123.0","{""Q0"":""Fox Sparrow""}","Song Sparrow","New World Sparrows and Allies","902"
"","2098","image-multi-choice","125","894150","0.0-1.0-124.0","{""Q0"":""White-throated Sparrow""}","White-throated Sparrow","New World Sparrows and Allies","764"
"","8255","image-multi-choice","126","903437","0.0-1.0-125.0","{""Q0"":""Nashville Warbler""}","Nashville Warbler","Wood-Warblers","868"
"","2941","image-multi-choice","127","907410","0.0-1.0-126.0","{""Q0"":""Fox Sparrow""}","Fox Sparrow","New World Sparrows and Allies","901"
"","4523","image-multi-choice","128","912964","0.0-1.0-127.0","{""Q0"":""Magnolia Warbler""}","Magnolia Warbler","Wood-Warblers","758"
"","4185","image-multi-choice","129","918182","0.0-1.0-128.0","{""Q0"":""Nashville Warbler""}","Nashville Warbler","Wood-Warblers","868"
"","5931","image-multi-choice","130","925133","0.0-1.0-129.0","{""Q0"":""Swamp Sparrow""}","Swamp Sparrow","New World Sparrows and Allies","904"
"","2758","image-multi-choice","131","928905","0.0-1.0-130.0","{""Q0"":""White-throated Sparrow""}","White-throated Sparrow","New World Sparrows and Allies","764"
"","3027","image-multi-choice","132","932963","0.0-1.0-131.0","{""Q0"":""Fox Sparrow""}","Song Sparrow","New World Sparrows and Allies","902"
"","2076","image-multi-choice","133","936069","0.0-1.0-132.0","{""Q0"":""Yellow Warbler""}","Yellow Warbler","Wood-Warblers","875"
"","6359","image-multi-choice","134","943459","0.0-1.0-133.0","{""Q0"":""Blackburnian Warbler""}","Townsend's Warbler","Wood-Warblers","881"
"","3027","image-multi-choice","135","947509","0.0-1.0-134.0","{""Q0"":""Fox Sparrow""}","Fox Sparrow","New World Sparrows and Allies","901"
"","3173","image-multi-choice","136","951718","0.0-1.0-135.0","{""Q0"":""White-crowned Sparrow""}","White-crowned Sparrow","New World Sparrows and Allies","766"
"","3450","image-multi-choice","137","956193","0.0-1.0-136.0","{""Q0"":""Magnolia Warbler""}","Magnolia Warbler","Wood-Warblers","758"
"","3566","image-multi-choice","138","960768","0.0-1.0-137.0","{""Q0"":""Blackburnian Warbler""}","Blackburnian Warbler","Wood-Warblers","874"
"","2689","image-multi-choice","139","964490","0.0-1.0-138.0","{""Q0"":""Magnolia Warbler""}","Magnolia Warbler","Wood-Warblers","758"
"","5615","image-multi-choice","140","971141","0.0-1.0-139.0","{""Q0"":""Chipping Sparrow""}","Chipping Sparrow","New World Sparrows and Allies","769"
"","13607","image-multi-choice","141","985783","0.0-1.0-140.0","{""Q0"":""Fox Sparrow""}","American Tree Sparrow","New World Sparrows and Allies","894"
"","8204","image-multi-choice","142","995021","0.0-1.0-141.0","{""Q0"":""Orange-crowned Warbler""}","Orange-crowned Warbler","Wood-Warblers","867"
"","3590","image-multi-choice","143","999623","0.0-1.0-142.0","{""Q0"":""Fox Sparrow""}","Fox Sparrow","New World Sparrows and Allies","901"
"","2408","image-multi-choice","144","1003067","0.0-1.0-143.0","{""Q0"":""Yellow Warbler""}","Yellow Warbler","Wood-Warblers","875"
"","3412","image-multi-choice","145","1007502","0.0-1.0-144.0","{""Q0"":""American Tree Sparrow""}","American Tree Sparrow","New World Sparrows and Allies","894"
"","7635","image-multi-choice","146","1016176","0.0-1.0-145.0","{""Q0"":""Swamp Sparrow""}","Swamp Sparrow","New World Sparrows and Allies","904"
"","3956","image-multi-choice","147","1021145","0.0-1.0-146.0","{""Q0"":""Lark Sparrow""}","Lark Sparrow","New World Sparrows and Allies","899"
"","5530","image-multi-choice","148","1027693","0.0-1.0-147.0","{""Q0"":""Lincoln's Sparrow""}","Vesper Sparrow","New World Sparrows and Allies","898"
"","3348","image-multi-choice","149","1032067","0.0-1.0-148.0","{""Q0"":""Fox Sparrow""}","Fox Sparrow","New World Sparrows and Allies","901"
"","5297","image-multi-choice","150","1038377","0.0-1.0-149.0","{""Q0"":""Song Sparrow""}","Song Sparrow","New World Sparrows and Allies","902"
"","7507","image-multi-choice","151","1046913","0.0-1.0-150.0","{""Q0"":""Blackburnian Warbler""}","Blackburnian Warbler","Wood-Warblers","874"
"","4831","image-multi-choice","152","1052773","0.0-1.0-151.0","{""Q0"":""Orange-crowned Warbler""}","Orange-crowned Warbler","Wood-Warblers","867"
"","3313","image-multi-choice","153","1057121","0.0-1.0-152.0","{""Q0"":""Fox Sparrow""}","Fox Sparrow","New World Sparrows and Allies","901"
"","5027","image-multi-choice","154","1063182","0.0-1.0-153.0","{""Q0"":""Orange-crowned Warbler""}","Orange-crowned Warbler","Wood-Warblers","867"
"","3717","image-multi-choice","155","1067935","0.0-1.0-154.0","{""Q0"":""Blackburnian Warbler""}","Townsend's Warbler","Wood-Warblers","881"
"","2780","image-multi-choice","156","1071729","0.0-1.0-155.0","{""Q0"":""Ovenbird""}","Ovenbird","Wood-Warblers","860"
"","4467","image-multi-choice","157","1077234","0.0-1.0-156.0","{""Q0"":""Nashville Warbler""}","Nashville Warbler","Wood-Warblers","868"
"","6677","image-multi-choice","158","1084940","0.0-1.0-157.0","{""Q0"":""Song Sparrow""}","Song Sparrow","New World Sparrows and Allies","902"
"","1743","image-multi-choice","159","1087706","0.0-1.0-158.0","{""Q0"":""Yellow Warbler""}","Yellow Warbler","Wood-Warblers","875"
"","2941","image-multi-choice","160","1091679","0.0-1.0-159.0","{""Q0"":""Fox Sparrow""}","Fox Sparrow","New World Sparrows and Allies","901"
"","3401","image-multi-choice","161","1096114","0.0-1.0-160.0","{""Q0"":""Black-and-white Warbler""}","Black-and-white Warbler","Wood-Warblers","864"
"","8242","image-multi-choice","162","1105396","0.0-1.0-161.0","{""Q0"":""Nashville Warbler""}","Orange-crowned Warbler","Wood-Warblers","867"
"","3607","image-multi-choice","163","1110043","0.0-1.0-162.0","{""Q0"":""American Tree Sparrow""}","American Tree Sparrow","New World Sparrows and Allies","894"
"","4527","image-multi-choice","164","1115592","0.0-1.0-163.0","{""Q0"":""Blackburnian Warbler""}","Townsend's Warbler","Wood-Warblers","881"
"","5909","image-multi-choice","165","1122519","0.0-1.0-164.0","{""Q0"":""Song Sparrow""}","Song Sparrow","New World Sparrows and Allies","902"
"","9806","image-multi-choice","166","1133363","0.0-1.0-165.0","{""Q0"":""Nashville Warbler""}","Nashville Warbler","Wood-Warblers","868"
"","3899","image-multi-choice","167","1138278","0.0-1.0-166.0","{""Q0"":""Tennessee Warbler""}","Tennessee Warbler","Wood-Warblers","866"
"","4719","image-multi-choice","168","1144023","0.0-1.0-167.0","{""Q0"":""American Tree Sparrow""}","Chipping Sparrow","New World Sparrows and Allies","769"
"","3054","image-multi-choice","169","1148110","0.0-1.0-168.0","{""Q0"":""Ovenbird""}","Ovenbird","Wood-Warblers","860"
"","2416","image-multi-choice","170","1151555","0.0-1.0-169.0","{""Q0"":""White-throated Sparrow""}","White-throated Sparrow","New World Sparrows and Allies","764"
"","2858","image-multi-choice","171","1155430","0.0-1.0-170.0","{""Q0"":""Fox Sparrow""}","Fox Sparrow","New World Sparrows and Allies","901"
"","5169","image-multi-choice","172","1161623","0.0-1.0-171.0","{""Q0"":""Blackburnian Warbler""}","Blackburnian Warbler","Wood-Warblers","874"
"","3206","image-multi-choice","173","1165859","0.0-1.0-172.0","{""Q0"":""American Tree Sparrow""}","American Tree Sparrow","New World Sparrows and Allies","894"
"","8884","image-multi-choice","174","1175778","0.0-1.0-173.0","{""Q0"":""Lincoln's Sparrow""}","Swamp Sparrow","New World Sparrows and Allies","904"
"","4884","image-multi-choice","175","1181686","0.0-1.0-174.0","{""Q0"":""Blackburnian Warbler""}","Townsend's Warbler","Wood-Warblers","881"
"","15242","image-multi-choice","176","1197965","0.0-1.0-175.0","{""Q0"":""Tennessee Warbler""}","Tennessee Warbler","Wood-Warblers","866"
"","3267","image-multi-choice","177","1202254","0.0-1.0-176.0","{""Q0"":""Northern Waterthrush""}","Northern Waterthrush","Wood-Warblers","862"
"","5591","image-multi-choice","178","1208878","0.0-1.0-177.0","{""Q0"":""Swamp Sparrow""}","Swamp Sparrow","New World Sparrows and Allies","904"
"","2533","image-multi-choice","179","1212437","0.0-1.0-178.0","{""Q0"":""Fox Sparrow""}","Fox Sparrow","New World Sparrows and Allies","901"
"","3107","image-multi-choice","180","1222931","0.0-1.0-179.0","{""Q0"":""American Tree Sparrow""}","American Tree Sparrow","New World Sparrows and Allies","894"
"","2324","image-multi-choice","181","1226278","0.0-1.0-180.0","{""Q0"":""Fox Sparrow""}","Fox Sparrow","New World Sparrows and Allies","901"
"","4514","image-multi-choice","182","1231822","0.0-1.0-181.0","{""Q0"":""Lincoln's Sparrow""}","Vesper Sparrow","New World Sparrows and Allies","898"
"","3798","image-multi-choice","183","1236650","0.0-1.0-182.0","{""Q0"":""Song Sparrow""}","Song Sparrow","New World Sparrows and Allies","902"
"","2835","image-multi-choice","184","1240511","0.0-1.0-183.0","{""Q0"":""Blackburnian Warbler""}","Blackburnian Warbler","Wood-Warblers","874"
"","29390","image-multi-choice","185","1270938","0.0-1.0-184.0","{""Q0"":""Lark Sparrow""}","White-crowned Sparrow","New World Sparrows and Allies","766"
"","3460","image-multi-choice","186","1275427","0.0-1.0-185.0","{""Q0"":""American Tree Sparrow""}","American Tree Sparrow","New World Sparrows and Allies","894"
"","2609","image-multi-choice","187","1279059","0.0-1.0-186.0","{""Q0"":""Black-and-white Warbler""}","Black-and-white Warbler","Wood-Warblers","864"
"","3201","image-multi-choice","188","1283286","0.0-1.0-187.0","{""Q0"":""Lark Sparrow""}","Lark Sparrow","New World Sparrows and Allies","899"
"","5815","image-multi-choice","189","1290133","0.0-1.0-188.0","{""Q0"":""Nashville Warbler""}","Nashville Warbler","Wood-Warblers","868"
"","2563","image-multi-choice","190","1293719","0.0-1.0-189.0","{""Q0"":""Northern Waterthrush""}","Northern Waterthrush","Wood-Warblers","862"
"","3008","image-multi-choice","191","1297755","0.0-1.0-190.0","{""Q0"":""Tennessee Warbler""}","Tennessee Warbler","Wood-Warblers","866"
"","6795","image-multi-choice","192","1305588","0.0-1.0-191.0","{""Q0"":""Nashville Warbler""}","Nashville Warbler","Wood-Warblers","868"
"","3112","image-multi-choice","193","1309713","0.0-1.0-192.0","{""Q0"":""Fox Sparrow""}","Fox Sparrow","New World Sparrows and Allies","901"
"","4058","image-multi-choice","194","1314804","0.0-1.0-193.0","{""Q0"":""Blackburnian Warbler""}","Blackburnian Warbler","Wood-Warblers","874"
"","6420","image-multi-choice","195","1322247","0.0-1.0-194.0","{""Q0"":""Swamp Sparrow""}","Swamp Sparrow","New World Sparrows and Allies","904"
"","5234","image-multi-choice","196","1328522","0.0-1.0-195.0","{""Q0"":""Townsend's Warbler""}","Townsend's Warbler","Wood-Warblers","881"
"","3452","image-multi-choice","197","1333010","0.0-1.0-196.0","{""Q0"":""Tennessee Warbler""}","Tennessee Warbler","Wood-Warblers","866"
"","3210","image-multi-choice","198","1337246","0.0-1.0-197.0","{""Q0"":""White-crowned Sparrow""}","White-crowned Sparrow","New World Sparrows and Allies","766"
"","2243","image-multi-choice","199","1340527","0.0-1.0-198.0","{""Q0"":""Ovenbird""}","Ovenbird","Wood-Warblers","860"
"","3803","image-multi-choice","200","1345369","0.0-1.0-199.0","{""Q0"":""Lincoln's Sparrow""}","Vesper Sparrow","New World Sparrows and Allies","898"
"","2706","image-multi-choice","201","1349100","0.0-1.0-200.0","{""Q0"":""Blackburnian Warbler""}","Blackburnian Warbler","Wood-Warblers","874"
"","3558","image-multi-choice","202","1353690","0.0-1.0-201.0","{""Q0"":""Chipping Sparrow""}","Chipping Sparrow","New World Sparrows and Allies","769"
"","23528","image-multi-choice","203","1378229","0.0-1.0-202.0","{""Q0"":""Song Sparrow""}","Vesper Sparrow","New World Sparrows and Allies","898"
"","4102","image-multi-choice","204","1383348","0.0-1.0-203.0","{""Q0"":""Yellow Warbler""}","Yellow Warbler","Wood-Warblers","875"
"","5461","image-multi-choice","205","1389844","0.0-1.0-204.0","{""Q0"":""Tennessee Warbler""}","Orange-crowned Warbler","Wood-Warblers","867"
"","2353","image-multi-choice","206","1393229","0.0-1.0-205.0","{""Q0"":""White-throated Sparrow""}","White-throated Sparrow","New World Sparrows and Allies","764"
"","3642","image-multi-choice","207","1397905","0.0-1.0-206.0","{""Q0"":""American Tree Sparrow""}","American Tree Sparrow","New World Sparrows and Allies","894"
"","4404","image-multi-choice","208","1403348","0.0-1.0-207.0","{""Q0"":""Tennessee Warbler""}","Orange-crowned Warbler","Wood-Warblers","867"
"","2741","image-multi-choice","209","1407108","0.0-1.0-208.0","{""Q0"":""Black-and-white Warbler""}","Black-and-white Warbler","Wood-Warblers","864"
"","2944","image-multi-choice","210","1411080","0.0-1.0-209.0","{""Q0"":""Lark Sparrow""}","Lark Sparrow","New World Sparrows and Allies","899"
"","2804","image-multi-choice","211","1414915","0.0-1.0-210.0","{""Q0"":""Chipping Sparrow""}","Chipping Sparrow","New World Sparrows and Allies","769"
"","5365","image-multi-choice","212","1421312","0.0-1.0-211.0","{""Q0"":""Tennessee Warbler""}","Orange-crowned Warbler","Wood-Warblers","867"
"","2362","image-multi-choice","213","1424696","0.0-1.0-212.0","{""Q0"":""Yellow Warbler""}","Yellow Warbler","Wood-Warblers","875"
"","4165","image-multi-choice","214","1429899","0.0-1.0-213.0","{""Q0"":""American Tree Sparrow""}","American Tree Sparrow","New World Sparrows and Allies","894"
"","5172","image-multi-choice","215","1436108","0.0-1.0-214.0","{""Q0"":""Vesper Sparrow""}","Vesper Sparrow","New World Sparrows and Allies","898"
"","2571","image-multi-choice","216","1439717","0.0-1.0-215.0","{""Q0"":""Ovenbird""}","Ovenbird","Wood-Warblers","860"
"","3085","image-multi-choice","217","1443828","0.0-1.0-216.0","{""Q0"":""Lark Sparrow""}","Lark Sparrow","New World Sparrows and Allies","899"
"","4012","image-multi-choice","218","1448856","0.0-1.0-217.0","{""Q0"":""Lincoln's Sparrow""}","Lincoln's Sparrow","New World Sparrows and Allies","903"
"","3505","image-multi-choice","219","1453384","0.0-1.0-218.0","{""Q0"":""Chipping Sparrow""}","Chipping Sparrow","New World Sparrows and Allies","769"
"","4240","image-multi-choice","220","1458665","0.0-1.0-219.0","{""Q0"":""Lincoln's Sparrow""}","Lincoln's Sparrow","New World Sparrows and Allies","903"
"","3197","image-multi-choice","221","1462890","0.0-1.0-220.0","{""Q0"":""Northern Waterthrush""}","Northern Waterthrush","Wood-Warblers","862"
"","3473","image-multi-choice","222","1467390","0.0-1.0-221.0","{""Q0"":""Chipping Sparrow""}","Chipping Sparrow","New World Sparrows and Allies","769"
"","3206","image-multi-choice","223","1471637","0.0-1.0-222.0","{""Q0"":""Lincoln's Sparrow""}","Lincoln's Sparrow","New World Sparrows and Allies","903"
"","4725","image-multi-choice","224","1477386","0.0-1.0-223.0","{""Q0"":""Blackburnian Warbler""}","Blackburnian Warbler","Wood-Warblers","874"
"","4175","image-multi-choice","225","1482589","0.0-1.0-224.0","{""Q0"":""Lincoln's Sparrow""}","Swamp Sparrow","New World Sparrows and Allies","904"
"","3521","image-multi-choice","226","1487142","0.0-1.0-225.0","{""Q0"":""American Tree Sparrow""}","American Tree Sparrow","New World Sparrows and Allies","894"
"","3568","image-multi-choice","227","1491742","0.0-1.0-226.0","{""Q0"":""Fox Sparrow""}","Fox Sparrow","New World Sparrows and Allies","901"
"","3872","image-multi-choice","228","1496635","0.0-1.0-227.0","{""Q0"":""Northern Waterthrush""}","Northern Waterthrush","Wood-Warblers","862"
"","8472","image-multi-choice","229","1506137","0.0-1.0-228.0","{""Q0"":""Nashville Warbler""}","Nashville Warbler","Wood-Warblers","868"
"","2964","image-multi-choice","230","1510125","0.0-1.0-229.0","{""Q0"":""Black-and-white Warbler""}","Black-and-white Warbler","Wood-Warblers","864"
"","3701","image-multi-choice","231","1514840","0.0-1.0-230.0","{""Q0"":""Tennessee Warbler""}","Tennessee Warbler","Wood-Warblers","866"
"","7353","image-multi-choice","232","1523225","0.0-1.0-231.0","{""Q0"":""Townsend's Warbler""}","Townsend's Warbler","Wood-Warblers","881"
"","3861","image-multi-choice","233","1528117","0.0-1.0-232.0","{""Q0"":""Townsend's Warbler""}","Magnolia Warbler","Wood-Warblers","758"
"","3353","image-multi-choice","234","1532506","0.0-1.0-233.0","{""Q0"":""Northern Waterthrush""}","Northern Waterthrush","Wood-Warblers","862"
"","4939","image-multi-choice","235","1538466","0.0-1.0-234.0","{""Q0"":""Tennessee Warbler""}","Orange-crowned Warbler","Wood-Warblers","867"
"","2454","image-multi-choice","236","1541950","0.0-1.0-235.0","{""Q0"":""White-throated Sparrow""}","White-throated Sparrow","New World Sparrows and Allies","764"
"","1987","image-multi-choice","237","1544967","0.0-1.0-236.0","{""Q0"":""Yellow Warbler""}","Yellow Warbler","Wood-Warblers","875"
"","3267","image-multi-choice","238","1549253","0.0-1.0-237.0","{""Q0"":""Fox Sparrow""}","Fox Sparrow","New World Sparrows and Allies","901"
"","4827","image-multi-choice","239","1555107","0.0-1.0-238.0","{""Q0"":""Lincoln's Sparrow""}","Swamp Sparrow","New World Sparrows and Allies","904"
"","2730","image-multi-choice","240","1573333","0.0-1.0-239.0","{""Q0"":""Fox Sparrow""}","Fox Sparrow","New World Sparrows and Allies","901"
"","7229","image-multi-choice","241","1581597","0.0-1.0-240.0","{""Q0"":""Orange-crowned Warbler""}","Orange-crowned Warbler","Wood-Warblers","867"
"","2349","image-multi-choice","242","1584979","0.0-1.0-241.0","{""Q0"":""White-crowned Sparrow""}","White-crowned Sparrow","New World Sparrows and Allies","766"
"","3191","image-multi-choice","243","1589193","0.0-1.0-242.0","{""Q0"":""Lark Sparrow""}","White-throated Sparrow","New World Sparrows and Allies","764"
"","4067","image-multi-choice","244","1594284","0.0-1.0-243.0","{""Q0"":""Fox Sparrow""}","Song Sparrow","New World Sparrows and Allies","902"
"","2432","image-multi-choice","245","1597753","0.0-1.0-244.0","{""Q0"":""Lark Sparrow""}","Lark Sparrow","New World Sparrows and Allies","899"
"","3014","image-multi-choice","246","1601801","0.0-1.0-245.0","{""Q0"":""Vesper Sparrow""}","Vesper Sparrow","New World Sparrows and Allies","898"
"","3241","image-multi-choice","247","1606066","0.0-1.0-246.0","{""Q0"":""Lark Sparrow""}","Lark Sparrow","New World Sparrows and Allies","899"
"","2935","image-multi-choice","248","1610025","0.0-1.0-247.0","{""Q0"":""American Tree Sparrow""}","American Tree Sparrow","New World Sparrows and Allies","894"
"","2838","image-multi-choice","249","1613897","0.0-1.0-248.0","{""Q0"":""Black-and-white Warbler""}","Black-and-white Warbler","Wood-Warblers","864"
"","2926","image-multi-choice","250","1617847","0.0-1.0-249.0","{""Q0"":""Lark Sparrow""}","Lark Sparrow","New World Sparrows and Allies","899"
"","4812","image-multi-choice","251","1623694","0.0-1.0-250.0","{""Q0"":""Orange-crowned Warbler""}","Orange-crowned Warbler","Wood-Warblers","867"
"","4729","image-multi-choice","252","1629453","0.0-1.0-251.0","{""Q0"":""Blackburnian Warbler""}","Blackburnian Warbler","Wood-Warblers","874"
"","4010","image-multi-choice","253","1634497","0.0-1.0-252.0","{""Q0"":""Vesper Sparrow""}","Vesper Sparrow","New World Sparrows and Allies","898"
"","6084","image-multi-choice","254","1641601","0.0-1.0-253.0","{""Q0"":""Townsend's Warbler""}","Townsend's Warbler","Wood-Warblers","881"
"","6932","image-multi-choice","255","1649561","0.0-1.0-254.0","{""Q0"":""Swamp Sparrow""}","Swamp Sparrow","New World Sparrows and Allies","904"
"","4507","image-multi-choice","256","1655104","0.0-1.0-255.0","{""Q0"":""Song Sparrow""}","Song Sparrow","New World Sparrows and Allies","902"
"","3852","image-multi-choice","257","1659981","0.0-1.0-256.0","{""Q0"":""Swamp Sparrow""}","Swamp Sparrow","New World Sparrows and Allies","904"
"","2583","image-multi-choice","258","1663587","0.0-1.0-257.0","{""Q0"":""Ovenbird""}","Ovenbird","Wood-Warblers","860"
"","2593","image-multi-choice","259","1667207","0.0-1.0-258.0","{""Q0"":""Black-and-white Warbler""}","Black-and-white Warbler","Wood-Warblers","864"
"","3639","image-multi-choice","260","1671873","0.0-1.0-259.0","{""Q0"":""American Tree Sparrow""}","American Tree Sparrow","New World Sparrows and Allies","894"
"","2079","image-multi-choice","261","1674964","0.0-1.0-260.0","{""Q0"":""Yellow Warbler""}","Yellow Warbler","Wood-Warblers","875"
"","4406","image-multi-choice","262","1680396","0.0-1.0-261.0","{""Q0"":""Vesper Sparrow""}","Vesper Sparrow","New World Sparrows and Allies","898"
"","2870","image-multi-choice","263","1684304","0.0-1.0-262.0","{""Q0"":""Chipping Sparrow""}","Chipping Sparrow","New World Sparrows and Allies","769"
"","3560","image-multi-choice","264","1688893","0.0-1.0-263.0","{""Q0"":""Northern Waterthrush""}","Northern Waterthrush","Wood-Warblers","862"
"","3886","image-multi-choice","265","1693798","0.0-1.0-264.0","{""Q0"":""Fox Sparrow""}","Song Sparrow","New World Sparrows and Allies","902"
"","4335","image-multi-choice","266","1699168","0.0-1.0-265.0","{""Q0"":""Nashville Warbler""}","Nashville Warbler","Wood-Warblers","868"
"","2214","image-multi-choice","267","1702399","0.0-1.0-266.0","{""Q0"":""White-throated Sparrow""}","White-throated Sparrow","New World Sparrows and Allies","764"
"","2196","image-multi-choice","268","1705630","0.0-1.0-267.0","{""Q0"":""White-crowned Sparrow""}","White-crowned Sparrow","New World Sparrows and Allies","766"
"","2853","image-multi-choice","269","1709502","0.0-1.0-268.0","{""Q0"":""American Tree Sparrow""}","American Tree Sparrow","New World Sparrows and Allies","894"
"","6478","image-multi-choice","270","1717010","0.0-1.0-269.0","{""Q0"":""White-crowned Sparrow""}","White-throated Sparrow","New World Sparrows and Allies","764"
"","2032","image-multi-choice","271","1720077","0.0-1.0-270.0","{""Q0"":""White-crowned Sparrow""}","White-crowned Sparrow","New World Sparrows and Allies","766"
"","1714","image-multi-choice","272","1722816","0.0-1.0-271.0","{""Q0"":""Yellow Warbler""}","Yellow Warbler","Wood-Warblers","875"
"","3366","image-multi-choice","273","1727207","0.0-1.0-272.0","{""Q0"":""Chipping Sparrow""}","Chipping Sparrow","New World Sparrows and Allies","769"
"","2405","image-multi-choice","274","1730637","0.0-1.0-273.0","{""Q0"":""Ovenbird""}","Ovenbird","Wood-Warblers","860"
"","2524","image-multi-choice","275","1734195","0.0-1.0-274.0","{""Q0"":""Northern Waterthrush""}","Northern Waterthrush","Wood-Warblers","862"
"","2264","image-multi-choice","276","1737478","0.0-1.0-275.0","{""Q0"":""Ovenbird""}","Ovenbird","Wood-Warblers","860"
"","4143","image-multi-choice","277","1742633","0.0-1.0-276.0","{""Q0"":""Black-and-white Warbler""}","Black-and-white Warbler","Wood-Warblers","864"
"","2601","image-multi-choice","278","1746278","0.0-1.0-277.0","{""Q0"":""Chipping Sparrow""}","Chipping Sparrow","New World Sparrows and Allies","769"
"","3256","image-multi-choice","279","1750567","0.0-1.0-278.0","{""Q0"":""Fox Sparrow""}","Fox Sparrow","New World Sparrows and Allies","901"
"","4528","image-multi-choice","280","1756125","0.0-1.0-279.0","{""Q0"":""Magnolia Warbler""}","Magnolia Warbler","Wood-Warblers","758"
"","2543","image-multi-choice","281","1759693","0.0-1.0-280.0","{""Q0"":""White-crowned Sparrow""}","White-crowned Sparrow","New World Sparrows and Allies","766"
"","2388","image-multi-choice","282","1763114","0.0-1.0-281.0","{""Q0"":""White-throated Sparrow""}","White-throated Sparrow","New World Sparrows and Allies","764"
"","6787","image-multi-choice","283","1770935","0.0-1.0-282.0","{""Q0"":""Swamp Sparrow""}","Swamp Sparrow","New World Sparrows and Allies","904"
"","5233","image-multi-choice","284","1777195","0.0-1.0-283.0","{""Q0"":""Magnolia Warbler""}","Magnolia Warbler","Wood-Warblers","758"
"","5276","image-multi-choice","285","1783491","0.0-1.0-284.0","{""Q0"":""Orange-crowned Warbler""}","Orange-crowned Warbler","Wood-Warblers","867"
"","5576","image-multi-choice","286","1790090","0.0-1.0-285.0","{""Q0"":""Magnolia Warbler""}","Magnolia Warbler","Wood-Warblers","758"
"","5906","image-multi-choice","287","1797030","0.0-1.0-286.0","{""Q0"":""Song Sparrow""}","Vesper Sparrow","New World Sparrows and Allies","898"
"","2767","image-multi-choice","288","1800826","0.0-1.0-287.0","{""Q0"":""Northern Waterthrush""}","Northern Waterthrush","Wood-Warblers","862"
"","4486","image-multi-choice","289","1806350","0.0-1.0-288.0","{""Q0"":""Blackburnian Warbler""}","Blackburnian Warbler","Wood-Warblers","874"
"","3574","image-multi-choice","290","1810948","0.0-1.0-289.0","{""Q0"":""Tennessee Warbler""}","Tennessee Warbler","Wood-Warblers","866"
"","2897","image-multi-choice","291","1814871","0.0-1.0-290.0","{""Q0"":""Lark Sparrow""}","Lark Sparrow","New World Sparrows and Allies","899"
"","3455","image-multi-choice","292","1819360","0.0-1.0-291.0","{""Q0"":""Black-and-white Warbler""}","Black-and-white Warbler","Wood-Warblers","864"
"","5890","image-multi-choice","293","1826273","0.0-1.0-292.0","{""Q0"":""Lincoln's Sparrow""}","Lincoln's Sparrow","New World Sparrows and Allies","903"
"","4759","image-multi-choice","294","1832069","0.0-1.0-293.0","{""Q0"":""Tennessee Warbler""}","Tennessee Warbler","Wood-Warblers","866"
"","2495","image-multi-choice","295","1835590","0.0-1.0-294.0","{""Q0"":""Ovenbird""}","Ovenbird","Wood-Warblers","860"
"","5043","image-multi-choice","296","1841660","0.0-1.0-295.0","{""Q0"":""Vesper Sparrow""}","Vesper Sparrow","New World Sparrows and Allies","898"
"","2714","image-multi-choice","297","1845396","0.0-1.0-296.0","{""Q0"":""Northern Waterthrush""}","Northern Waterthrush","Wood-Warblers","862"
"","4044","image-multi-choice","298","1850475","0.0-1.0-297.0","{""Q0"":""Chipping Sparrow""}","Chipping Sparrow","New World Sparrows and Allies","769"
"","3352","image-multi-choice","299","1854861","0.0-1.0-298.0","{""Q0"":""Lark Sparrow""}","Lark Sparrow","New World Sparrows and Allies","899"
"","2005","image-multi-choice","300","1867734","0.0-1.0-299.0","{""Q0"":""Yellow Warbler""}","Yellow Warbler","Wood-Warblers","875"
"[{""page_index"":0,""viewing_time"":1910}]","1911","instructions","301","1870660","0.0-2.0","","","",""
