"view_history","rt","trial_type","trial_index","time_elapsed","internal_node_id","responses","bird","family","class"
"[{""page_index"":0,""viewing_time"":17706}]","17706","instructions","0","17707","0.0-0.0","","","",""
"","5541","image-multi-choice","1","24266","0.0-1.0-0.0","{""Q0"":""Swamp Sparrow""}","American Tree Sparrow","New World Sparrows and Allies","894"
"","20779","image-multi-choice","2","46056","0.0-1.0-1.0","{""Q0"":""Tennessee Warbler""}","Tennessee Warbler","Wood-Warblers","866"
"","3074","image-multi-choice","3","50140","0.0-1.0-2.0","{""Q0"":""White-crowned Sparrow""}","White-crowned Sparrow","New World Sparrows and Allies","766"
"","8632","image-multi-choice","4","59781","0.0-1.0-3.0","{""Q0"":""American Tree Sparrow""}","American Tree Sparrow","New World Sparrows and Allies","894"
"","19252","image-multi-choice","5","80043","0.0-1.0-4.0","{""Q0"":""White-crowned Sparrow""}","White-crowned Sparrow","New World Sparrows and Allies","766"
"","9488","image-multi-choice","6","90539","0.0-1.0-5.0","{""Q0"":""Magnolia Warbler""}","Townsend's Warbler","Wood-Warblers","881"
"","9902","image-multi-choice","7","101451","0.0-1.0-6.0","{""Q0"":""Lincoln's Sparrow""}","Vesper Sparrow","New World Sparrows and Allies","898"
"","7712","image-multi-choice","8","110170","0.0-1.0-7.0","{""Q0"":""Nashville Warbler""}","Nashville Warbler","Wood-Warblers","868"
"","5587","image-multi-choice","9","116763","0.0-1.0-8.0","{""Q0"":""Northern Waterthrush""}","Northern Waterthrush","Wood-Warblers","862"
"","3302","image-multi-choice","10","121071","0.0-1.0-9.0","{""Q0"":""Ovenbird""}","Ovenbird","Wood-Warblers","860"
"","9075","image-multi-choice","11","131152","0.0-1.0-10.0","{""Q0"":""Lincoln's Sparrow""}","Lincoln's Sparrow","New World Sparrows and Allies","903"
"","8343","image-multi-choice","12","140501","0.0-1.0-11.0","{""Q0"":""Blackburnian Warbler""}","Townsend's Warbler","Wood-Warblers","881"
"","4069","image-multi-choice","13","145575","0.0-1.0-12.0","{""Q0"":""Fox Sparrow""}","Fox Sparrow","New World Sparrows and Allies","901"
"","10725","image-multi-choice","14","157308","0.0-1.0-13.0","{""Q0"":""Orange-crowned Warbler""}","Blackburnian Warbler","Wood-Warblers","874"
"","6836","image-multi-choice","15","165149","0.0-1.0-14.0","{""Q0"":""Lark Sparrow""}","Vesper Sparrow","New World Sparrows and Allies","898"
"","4728","image-multi-choice","16","170887","0.0-1.0-15.0","{""Q0"":""Blackburnian Warbler""}","Black-and-white Warbler","Wood-Warblers","864"
"","17387","image-multi-choice","17","189281","0.0-1.0-16.0","{""Q0"":""Townsend's Warbler""}","Nashville Warbler","Wood-Warblers","868"
"","5630","image-multi-choice","18","195918","0.0-1.0-17.0","{""Q0"":""Swamp Sparrow""}","Lincoln's Sparrow","New World Sparrows and Allies","903"
"","6317","image-multi-choice","19","203242","0.0-1.0-18.0","{""Q0"":""Tennessee Warbler""}","Nashville Warbler","Wood-Warblers","868"
"","16466","image-multi-choice","20","220714","0.0-1.0-19.0","{""Q0"":""Vesper Sparrow""}","Lark Sparrow","New World Sparrows and Allies","899"
"","5686","image-multi-choice","21","227407","0.0-1.0-20.0","{""Q0"":""Magnolia Warbler""}","Magnolia Warbler","Wood-Warblers","758"
"","6317","image-multi-choice","22","234731","0.0-1.0-21.0","{""Q0"":""Magnolia Warbler""}","Townsend's Warbler","Wood-Warblers","881"
"","21033","image-multi-choice","23","256770","0.0-1.0-22.0","{""Q0"":""Chipping Sparrow""}","Swamp Sparrow","New World Sparrows and Allies","904"
"","6049","image-multi-choice","24","263824","0.0-1.0-23.0","{""Q0"":""Tennessee Warbler""}","Tennessee Warbler","Wood-Warblers","866"
"","3591","image-multi-choice","25","268425","0.0-1.0-24.0","{""Q0"":""Ovenbird""}","Ovenbird","Wood-Warblers","860"
"","5192","image-multi-choice","26","274624","0.0-1.0-25.0","{""Q0"":""White-crowned Sparrow""}","White-crowned Sparrow","New World Sparrows and Allies","766"
"","7140","image-multi-choice","27","282769","0.0-1.0-26.0","{""Q0"":""American Tree Sparrow""}","Vesper Sparrow","New World Sparrows and Allies","898"
"","6442","image-multi-choice","28","290217","0.0-1.0-27.0","{""Q0"":""Nashville Warbler""}","Orange-crowned Warbler","Wood-Warblers","867"
"","5729","image-multi-choice","29","296955","0.0-1.0-28.0","{""Q0"":""Swamp Sparrow""}","American Tree Sparrow","New World Sparrows and Allies","894"
"","7780","image-multi-choice","30","305742","0.0-1.0-29.0","{""Q0"":""Orange-crowned Warbler""}","Tennessee Warbler","Wood-Warblers","866"
"","6306","image-multi-choice","31","313054","0.0-1.0-30.0","{""Q0"":""Magnolia Warbler""}","Magnolia Warbler","Wood-Warblers","758"
"","4772","image-multi-choice","32","318837","0.0-1.0-31.0","{""Q0"":""Blackburnian Warbler""}","Blackburnian Warbler","Wood-Warblers","874"
"","3953","image-multi-choice","33","323799","0.0-1.0-32.0","{""Q0"":""Tennessee Warbler""}","Tennessee Warbler","Wood-Warblers","866"
"","9578","image-multi-choice","34","334385","0.0-1.0-33.0","{""Q0"":""Lincoln's Sparrow""}","Vesper Sparrow","New World Sparrows and Allies","898"
"","5541","image-multi-choice","35","340932","0.0-1.0-34.0","{""Q0"":""Tennessee Warbler""}","Orange-crowned Warbler","Wood-Warblers","867"
"","3718","image-multi-choice","36","345657","0.0-1.0-35.0","{""Q0"":""White-crowned Sparrow""}","White-crowned Sparrow","New World Sparrows and Allies","766"
"","2602","image-multi-choice","37","349268","0.0-1.0-36.0","{""Q0"":""Fox Sparrow""}","Fox Sparrow","New World Sparrows and Allies","901"
"","7566","image-multi-choice","38","357841","0.0-1.0-37.0","{""Q0"":""Swamp Sparrow""}","Swamp Sparrow","New World Sparrows and Allies","904"
"","2571","image-multi-choice","39","361419","0.0-1.0-38.0","{""Q0"":""Yellow Warbler""}","Yellow Warbler","Wood-Warblers","875"
"","8669","image-multi-choice","40","371093","0.0-1.0-39.0","{""Q0"":""Blackburnian Warbler""}","Black-and-white Warbler","Wood-Warblers","864"
"","4327","image-multi-choice","41","376426","0.0-1.0-40.0","{""Q0"":""Fox Sparrow""}","Fox Sparrow","New World Sparrows and Allies","901"
"","5494","image-multi-choice","42","382929","0.0-1.0-41.0","{""Q0"":""Northern Waterthrush""}","Northern Waterthrush","Wood-Warblers","862"
"","7183","image-multi-choice","43","391119","0.0-1.0-42.0","{""Q0"":""Nashville Warbler""}","Nashville Warbler","Wood-Warblers","868"
"","4774","image-multi-choice","44","396901","0.0-1.0-43.0","{""Q0"":""Magnolia Warbler""}","Blackburnian Warbler","Wood-Warblers","874"
"","4529","image-multi-choice","45","402436","0.0-1.0-44.0","{""Q0"":""Townsend's Warbler""}","Orange-crowned Warbler","Wood-Warblers","867"
"","5381","image-multi-choice","46","408827","0.0-1.0-45.0","{""Q0"":""Orange-crowned Warbler""}","Blackburnian Warbler","Wood-Warblers","874"
"","6836","image-multi-choice","47","416668","0.0-1.0-46.0","{""Q0"":""Nashville Warbler""}","Nashville Warbler","Wood-Warblers","868"
"","3154","image-multi-choice","48","420830","0.0-1.0-47.0","{""Q0"":""Northern Waterthrush""}","Northern Waterthrush","Wood-Warblers","862"
"","3001","image-multi-choice","49","424835","0.0-1.0-48.0","{""Q0"":""Fox Sparrow""}","Fox Sparrow","New World Sparrows and Allies","901"
"","5430","image-multi-choice","50","431270","0.0-1.0-49.0","{""Q0"":""Lincoln's Sparrow""}","Swamp Sparrow","New World Sparrows and Allies","904"
"","7564","image-multi-choice","51","439843","0.0-1.0-50.0","{""Q0"":""Nashville Warbler""}","Nashville Warbler","Wood-Warblers","868"
"","3986","image-multi-choice","52","444838","0.0-1.0-51.0","{""Q0"":""Black-and-white Warbler""}","Black-and-white Warbler","Wood-Warblers","864"
"","3359","image-multi-choice","53","449203","0.0-1.0-52.0","{""Q0"":""Swamp Sparrow""}","American Tree Sparrow","New World Sparrows and Allies","894"
"","3101","image-multi-choice","54","453309","0.0-1.0-53.0","{""Q0"":""Black-and-white Warbler""}","Black-and-white Warbler","Wood-Warblers","864"
"","8156","image-multi-choice","55","462478","0.0-1.0-54.0","{""Q0"":""Magnolia Warbler""}","Townsend's Warbler","Wood-Warblers","881"
"","6250","image-multi-choice","56","469734","0.0-1.0-55.0","{""Q0"":""Lincoln's Sparrow""}","Lark Sparrow","New World Sparrows and Allies","899"
"","2582","image-multi-choice","57","473323","0.0-1.0-56.0","{""Q0"":""Ovenbird""}","Ovenbird","Wood-Warblers","860"
"","7512","image-multi-choice","58","481840","0.0-1.0-57.0","{""Q0"":""Song Sparrow""}","Song Sparrow","New World Sparrows and Allies","902"
"","3558","image-multi-choice","59","486407","0.0-1.0-58.0","{""Q0"":""White-throated Sparrow""}","Chipping Sparrow","New World Sparrows and Allies","769"
"","4671","image-multi-choice","60","504969","0.0-1.0-59.0","{""Q0"":""Black-and-white Warbler""}","Black-and-white Warbler","Wood-Warblers","864"
"","3472","image-multi-choice","61","509447","0.0-1.0-60.0","{""Q0"":""Chipping Sparrow""}","Chipping Sparrow","New World Sparrows and Allies","769"
"","5787","image-multi-choice","62","516242","0.0-1.0-61.0","{""Q0"":""Swamp Sparrow""}","Swamp Sparrow","New World Sparrows and Allies","904"
"","3974","image-multi-choice","63","521226","0.0-1.0-62.0","{""Q0"":""Nashville Warbler""}","Nashville Warbler","Wood-Warblers","868"
"","10510","image-multi-choice","64","532746","0.0-1.0-63.0","{""Q0"":""Swamp Sparrow""}","Lincoln's Sparrow","New World Sparrows and Allies","903"
"","5001","image-multi-choice","65","538754","0.0-1.0-64.0","{""Q0"":""Orange-crowned Warbler""}","Black-and-white Warbler","Wood-Warblers","864"
"","2367","image-multi-choice","66","542129","0.0-1.0-65.0","{""Q0"":""Fox Sparrow""}","Fox Sparrow","New World Sparrows and Allies","901"
"","4627","image-multi-choice","67","547765","0.0-1.0-66.0","{""Q0"":""Magnolia Warbler""}","Townsend's Warbler","Wood-Warblers","881"
"","7451","image-multi-choice","68","556225","0.0-1.0-67.0","{""Q0"":""Yellow Warbler""}","Yellow Warbler","Wood-Warblers","875"
"","4786","image-multi-choice","69","562019","0.0-1.0-68.0","{""Q0"":""Tennessee Warbler""}","Tennessee Warbler","Wood-Warblers","866"
"","12033","image-multi-choice","70","575058","0.0-1.0-69.0","{""Q0"":""Ovenbird""}","Ovenbird","Wood-Warblers","860"
"","5708","image-multi-choice","71","581774","0.0-1.0-70.0","{""Q0"":""Magnolia Warbler""}","Townsend's Warbler","Wood-Warblers","881"
"","2828","image-multi-choice","72","585610","0.0-1.0-71.0","{""Q0"":""Black-and-white Warbler""}","Black-and-white Warbler","Wood-Warblers","864"
"","5743","image-multi-choice","73","592360","0.0-1.0-72.0","{""Q0"":""Song Sparrow""}","Song Sparrow","New World Sparrows and Allies","902"
"","3876","image-multi-choice","74","597243","0.0-1.0-73.0","{""Q0"":""Northern Waterthrush""}","Northern Waterthrush","Wood-Warblers","862"
"","3844","image-multi-choice","75","602092","0.0-1.0-74.0","{""Q0"":""Swamp Sparrow""}","Swamp Sparrow","New World Sparrows and Allies","904"
"","2546","image-multi-choice","76","605646","0.0-1.0-75.0","{""Q0"":""White-crowned Sparrow""}","White-crowned Sparrow","New World Sparrows and Allies","766"
"","2470","image-multi-choice","77","609123","0.0-1.0-76.0","{""Q0"":""White-throated Sparrow""}","White-throated Sparrow","New World Sparrows and Allies","764"
"","7386","image-multi-choice","78","617515","0.0-1.0-77.0","{""Q0"":""Magnolia Warbler""}","Townsend's Warbler","Wood-Warblers","881"
"","5483","image-multi-choice","79","624007","0.0-1.0-78.0","{""Q0"":""American Tree Sparrow""}","Vesper Sparrow","New World Sparrows and Allies","898"
"","3493","image-multi-choice","80","628507","0.0-1.0-79.0","{""Q0"":""White-throated Sparrow""}","White-throated Sparrow","New World Sparrows and Allies","764"
"","3135","image-multi-choice","81","632647","0.0-1.0-80.0","{""Q0"":""Northern Waterthrush""}","Northern Waterthrush","Wood-Warblers","862"
"","2681","image-multi-choice","82","636337","0.0-1.0-81.0","{""Q0"":""Yellow Warbler""}","Yellow Warbler","Wood-Warblers","875"
"","7823","image-multi-choice","83","645168","0.0-1.0-82.0","{""Q0"":""Nashville Warbler""}","Nashville Warbler","Wood-Warblers","868"
"","4177","image-multi-choice","84","650354","0.0-1.0-83.0","{""Q0"":""Lark Sparrow""}","Lark Sparrow","New World Sparrows and Allies","899"
"","3145","image-multi-choice","85","654506","0.0-1.0-84.0","{""Q0"":""Tennessee Warbler""}","Orange-crowned Warbler","Wood-Warblers","867"
"","4203","image-multi-choice","86","659715","0.0-1.0-85.0","{""Q0"":""Nashville Warbler""}","Nashville Warbler","Wood-Warblers","868"
"","3648","image-multi-choice","87","664372","0.0-1.0-86.0","{""Q0"":""Black-and-white Warbler""}","Black-and-white Warbler","Wood-Warblers","864"
"","6046","image-multi-choice","88","671426","0.0-1.0-87.0","{""Q0"":""Townsend's Warbler""}","Nashville Warbler","Wood-Warblers","868"
"","2998","image-multi-choice","89","675431","0.0-1.0-88.0","{""Q0"":""Ovenbird""}","Ovenbird","Wood-Warblers","860"
"","7821","image-multi-choice","90","684262","0.0-1.0-89.0","{""Q0"":""Black-and-white Warbler""}","Black-and-white Warbler","Wood-Warblers","864"
"","3121","image-multi-choice","91","688391","0.0-1.0-90.0","{""Q0"":""Chipping Sparrow""}","Chipping Sparrow","New World Sparrows and Allies","769"
"","2725","image-multi-choice","92","692126","0.0-1.0-91.0","{""Q0"":""Tennessee Warbler""}","Tennessee Warbler","Wood-Warblers","866"
"","2121","image-multi-choice","93","695254","0.0-1.0-92.0","{""Q0"":""White-throated Sparrow""}","White-throated Sparrow","New World Sparrows and Allies","764"
"","7477","image-multi-choice","94","703736","0.0-1.0-93.0","{""Q0"":""Lincoln's Sparrow""}","Song Sparrow","New World Sparrows and Allies","902"
"","6003","image-multi-choice","95","710745","0.0-1.0-94.0","{""Q0"":""Magnolia Warbler""}","Blackburnian Warbler","Wood-Warblers","874"
"","4346","image-multi-choice","96","716100","0.0-1.0-95.0","{""Q0"":""Swamp Sparrow""}","American Tree Sparrow","New World Sparrows and Allies","894"
"","2539","image-multi-choice","97","719644","0.0-1.0-96.0","{""Q0"":""White-throated Sparrow""}","White-throated Sparrow","New World Sparrows and Allies","764"
"","5710","image-multi-choice","98","726360","0.0-1.0-97.0","{""Q0"":""Townsend's Warbler""}","Orange-crowned Warbler","Wood-Warblers","867"
"","2242","image-multi-choice","99","729612","0.0-1.0-98.0","{""Q0"":""Yellow Warbler""}","Yellow Warbler","Wood-Warblers","875"
"","2672","image-multi-choice","100","733290","0.0-1.0-99.0","{""Q0"":""Fox Sparrow""}","Fox Sparrow","New World Sparrows and Allies","901"
"","5314","image-multi-choice","101","739613","0.0-1.0-100.0","{""Q0"":""Lincoln's Sparrow""}","Chipping Sparrow","New World Sparrows and Allies","769"
"","3176","image-multi-choice","102","743798","0.0-1.0-101.0","{""Q0"":""Northern Waterthrush""}","Northern Waterthrush","Wood-Warblers","862"
"","9273","image-multi-choice","103","754080","0.0-1.0-102.0","{""Q0"":""American Tree Sparrow""}","Swamp Sparrow","New World Sparrows and Allies","904"
"","2447","image-multi-choice","104","757534","0.0-1.0-103.0","{""Q0"":""Northern Waterthrush""}","Northern Waterthrush","Wood-Warblers","862"
"","1886","image-multi-choice","105","760425","0.0-1.0-104.0","{""Q0"":""Yellow Warbler""}","Yellow Warbler","Wood-Warblers","875"
"","4438","image-multi-choice","106","765870","0.0-1.0-105.0","{""Q0"":""Blackburnian Warbler""}","Magnolia Warbler","Wood-Warblers","758"
"","5709","image-multi-choice","107","772587","0.0-1.0-106.0","{""Q0"":""Magnolia Warbler""}","Townsend's Warbler","Wood-Warblers","881"
"","5350","image-multi-choice","108","778943","0.0-1.0-107.0","{""Q0"":""White-throated Sparrow""}","Swamp Sparrow","New World Sparrows and Allies","904"
"","2707","image-multi-choice","109","782656","0.0-1.0-108.0","{""Q0"":""Fox Sparrow""}","Fox Sparrow","New World Sparrows and Allies","901"
"","2591","image-multi-choice","110","786255","0.0-1.0-109.0","{""Q0"":""Yellow Warbler""}","Yellow Warbler","Wood-Warblers","875"
"","3437","image-multi-choice","111","790699","0.0-1.0-110.0","{""Q0"":""Lincoln's Sparrow""}","Lincoln's Sparrow","New World Sparrows and Allies","903"
"","4662","image-multi-choice","112","796369","0.0-1.0-111.0","{""Q0"":""Magnolia Warbler""}","Townsend's Warbler","Wood-Warblers","881"
"","2403","image-multi-choice","113","799778","0.0-1.0-112.0","{""Q0"":""White-crowned Sparrow""}","White-crowned Sparrow","New World Sparrows and Allies","766"
"","4818","image-multi-choice","114","805606","0.0-1.0-113.0","{""Q0"":""Orange-crowned Warbler""}","Blackburnian Warbler","Wood-Warblers","874"
"","4561","image-multi-choice","115","811174","0.0-1.0-114.0","{""Q0"":""Nashville Warbler""}","Nashville Warbler","Wood-Warblers","868"
"","3457","image-multi-choice","116","815641","0.0-1.0-115.0","{""Q0"":""Tennessee Warbler""}","Tennessee Warbler","Wood-Warblers","866"
"","6870","image-multi-choice","117","823516","0.0-1.0-116.0","{""Q0"":""American Tree Sparrow""}","Vesper Sparrow","New World Sparrows and Allies","898"
"","6530","image-multi-choice","118","831053","0.0-1.0-117.0","{""Q0"":""Lincoln's Sparrow""}","Swamp Sparrow","New World Sparrows and Allies","904"
"","2468","image-multi-choice","119","834529","0.0-1.0-118.0","{""Q0"":""White-crowned Sparrow""}","White-crowned Sparrow","New World Sparrows and Allies","766"
"","7781","image-multi-choice","120","848119","0.0-1.0-119.0","{""Q0"":""Blackburnian Warbler""}","Blackburnian Warbler","Wood-Warblers","874"
"","2535","image-multi-choice","121","851663","0.0-1.0-120.0","{""Q0"":""Fox Sparrow""}","Fox Sparrow","New World Sparrows and Allies","901"
"","3695","image-multi-choice","122","856366","0.0-1.0-121.0","{""Q0"":""Lark Sparrow""}","Vesper Sparrow","New World Sparrows and Allies","898"
"","2730","image-multi-choice","123","860101","0.0-1.0-122.0","{""Q0"":""Yellow Warbler""}","Yellow Warbler","Wood-Warblers","875"
"","5066","image-multi-choice","124","866176","0.0-1.0-123.0","{""Q0"":""Song Sparrow""}","Song Sparrow","New World Sparrows and Allies","902"
"","9027","image-multi-choice","125","876211","0.0-1.0-124.0","{""Q0"":""Magnolia Warbler""}","Townsend's Warbler","Wood-Warblers","881"
"","40313","image-multi-choice","126","917533","0.0-1.0-125.0","{""Q0"":""White-crowned Sparrow""}","White-crowned Sparrow","New World Sparrows and Allies","766"
"","6702","image-multi-choice","127","925239","0.0-1.0-126.0","{""Q0"":""American Tree Sparrow""}","Song Sparrow","New World Sparrows and Allies","902"
"","3920","image-multi-choice","128","930166","0.0-1.0-127.0","{""Q0"":""Ovenbird""}","Ovenbird","Wood-Warblers","860"
"","3898","image-multi-choice","129","935071","0.0-1.0-128.0","{""Q0"":""Blackburnian Warbler""}","Magnolia Warbler","Wood-Warblers","758"
"","7677","image-multi-choice","130","943756","0.0-1.0-129.0","{""Q0"":""Lincoln's Sparrow""}","Swamp Sparrow","New World Sparrows and Allies","904"
"","2660","image-multi-choice","131","947424","0.0-1.0-130.0","{""Q0"":""Lark Sparrow""}","Lark Sparrow","New World Sparrows and Allies","899"
"","3628","image-multi-choice","132","952059","0.0-1.0-131.0","{""Q0"":""Magnolia Warbler""}","Magnolia Warbler","Wood-Warblers","758"
"","2738","image-multi-choice","133","955805","0.0-1.0-132.0","{""Q0"":""White-throated Sparrow""}","White-throated Sparrow","New World Sparrows and Allies","764"
"","5607","image-multi-choice","134","962420","0.0-1.0-133.0","{""Q0"":""Blackburnian Warbler""}","Magnolia Warbler","Wood-Warblers","758"
"","2178","image-multi-choice","135","965604","0.0-1.0-134.0","{""Q0"":""Yellow Warbler""}","Yellow Warbler","Wood-Warblers","875"
"","2692","image-multi-choice","136","969305","0.0-1.0-135.0","{""Q0"":""Tennessee Warbler""}","Tennessee Warbler","Wood-Warblers","866"
"","2988","image-multi-choice","137","973300","0.0-1.0-136.0","{""Q0"":""Ovenbird""}","Ovenbird","Wood-Warblers","860"
"","4270","image-multi-choice","138","978576","0.0-1.0-137.0","{""Q0"":""Black-and-white Warbler""}","Black-and-white Warbler","Wood-Warblers","864"
"","5786","image-multi-choice","139","985370","0.0-1.0-138.0","{""Q0"":""American Tree Sparrow""}","Chipping Sparrow","New World Sparrows and Allies","769"
"","2705","image-multi-choice","140","989083","0.0-1.0-139.0","{""Q0"":""Northern Waterthrush""}","Northern Waterthrush","Wood-Warblers","862"
"","5787","image-multi-choice","141","995878","0.0-1.0-140.0","{""Q0"":""American Tree Sparrow""}","Vesper Sparrow","New World Sparrows and Allies","898"
"","2358","image-multi-choice","142","999242","0.0-1.0-141.0","{""Q0"":""White-throated Sparrow""}","White-throated Sparrow","New World Sparrows and Allies","764"
"","6293","image-multi-choice","143","1006543","0.0-1.0-142.0","{""Q0"":""Magnolia Warbler""}","Magnolia Warbler","Wood-Warblers","758"
"","6889","image-multi-choice","144","1014441","0.0-1.0-143.0","{""Q0"":""Orange-crowned Warbler""}","Blackburnian Warbler","Wood-Warblers","874"
"","3086","image-multi-choice","145","1018536","0.0-1.0-144.0","{""Q0"":""Lark Sparrow""}","Lark Sparrow","New World Sparrows and Allies","899"
"","2930","image-multi-choice","146","1022473","0.0-1.0-145.0","{""Q0"":""Fox Sparrow""}","Song Sparrow","New World Sparrows and Allies","902"
"","2336","image-multi-choice","147","1025814","0.0-1.0-146.0","{""Q0"":""White-crowned Sparrow""}","White-crowned Sparrow","New World Sparrows and Allies","766"
"","10201","image-multi-choice","148","1037020","0.0-1.0-147.0","{""Q0"":""Vesper Sparrow""}","Chipping Sparrow","New World Sparrows and Allies","769"
"","5212","image-multi-choice","149","1043241","0.0-1.0-148.0","{""Q0"":""Swamp Sparrow""}","Swamp Sparrow","New World Sparrows and Allies","904"
"","19264","image-multi-choice","150","1063513","0.0-1.0-149.0","{""Q0"":""Fox Sparrow""}","Fox Sparrow","New World Sparrows and Allies","901"
"","1726","image-multi-choice","151","1066247","0.0-1.0-150.0","{""Q0"":""Yellow Warbler""}","Yellow Warbler","Wood-Warblers","875"
"","6012","image-multi-choice","152","1073267","0.0-1.0-151.0","{""Q0"":""White-crowned Sparrow""}","White-crowned Sparrow","New World Sparrows and Allies","766"
"","2578","image-multi-choice","153","1076856","0.0-1.0-152.0","{""Q0"":""Fox Sparrow""}","Song Sparrow","New World Sparrows and Allies","902"
"","3641","image-multi-choice","154","1081502","0.0-1.0-153.0","{""Q0"":""Northern Waterthrush""}","Northern Waterthrush","Wood-Warblers","862"
"","1974","image-multi-choice","155","1084484","0.0-1.0-154.0","{""Q0"":""White-crowned Sparrow""}","White-crowned Sparrow","New World Sparrows and Allies","766"
"","11084","image-multi-choice","156","1096578","0.0-1.0-155.0","{""Q0"":""Yellow Warbler""}","Yellow Warbler","Wood-Warblers","875"
"","2109","image-multi-choice","157","1099694","0.0-1.0-156.0","{""Q0"":""White-throated Sparrow""}","White-throated Sparrow","New World Sparrows and Allies","764"
"","1972","image-multi-choice","158","1102675","0.0-1.0-157.0","{""Q0"":""White-crowned Sparrow""}","White-crowned Sparrow","New World Sparrows and Allies","766"
"","3281","image-multi-choice","159","1106961","0.0-1.0-158.0","{""Q0"":""Magnolia Warbler""}","Townsend's Warbler","Wood-Warblers","881"
"","5021","image-multi-choice","160","1112991","0.0-1.0-159.0","{""Q0"":""Townsend's Warbler""}","Tennessee Warbler","Wood-Warblers","866"
"","2039","image-multi-choice","161","1116040","0.0-1.0-160.0","{""Q0"":""White-throated Sparrow""}","White-throated Sparrow","New World Sparrows and Allies","764"
"","2287","image-multi-choice","162","1119336","0.0-1.0-161.0","{""Q0"":""Fox Sparrow""}","Fox Sparrow","New World Sparrows and Allies","901"
"","7214","image-multi-choice","163","1127560","0.0-1.0-162.0","{""Q0"":""Lincoln's Sparrow""}","Song Sparrow","New World Sparrows and Allies","902"
"","1977","image-multi-choice","164","1130541","0.0-1.0-163.0","{""Q0"":""White-crowned Sparrow""}","White-crowned Sparrow","New World Sparrows and Allies","766"
"","4730","image-multi-choice","165","1136279","0.0-1.0-164.0","{""Q0"":""Lincoln's Sparrow""}","Song Sparrow","New World Sparrows and Allies","902"
"","3660","image-multi-choice","166","1140948","0.0-1.0-165.0","{""Q0"":""Vesper Sparrow""}","American Tree Sparrow","New World Sparrows and Allies","894"
"","7038","image-multi-choice","167","1148991","0.0-1.0-166.0","{""Q0"":""Tennessee Warbler""}","Orange-crowned Warbler","Wood-Warblers","867"
"","2629","image-multi-choice","168","1152625","0.0-1.0-167.0","{""Q0"":""Swamp Sparrow""}","Lincoln's Sparrow","New World Sparrows and Allies","903"
"","2783","image-multi-choice","169","1156417","0.0-1.0-168.0","{""Q0"":""Black-and-white Warbler""}","Blackburnian Warbler","Wood-Warblers","874"
"","2402","image-multi-choice","170","1159825","0.0-1.0-169.0","{""Q0"":""White-throated Sparrow""}","White-throated Sparrow","New World Sparrows and Allies","764"
"","2614","image-multi-choice","171","1163448","0.0-1.0-170.0","{""Q0"":""Fox Sparrow""}","Fox Sparrow","New World Sparrows and Allies","901"
"","7036","image-multi-choice","172","1171492","0.0-1.0-171.0","{""Q0"":""American Tree Sparrow""}","Chipping Sparrow","New World Sparrows and Allies","769"
"","4794","image-multi-choice","173","1177296","0.0-1.0-172.0","{""Q0"":""Song Sparrow""}","Swamp Sparrow","New World Sparrows and Allies","904"
"","3414","image-multi-choice","174","1181718","0.0-1.0-173.0","{""Q0"":""Song Sparrow""}","Lincoln's Sparrow","New World Sparrows and Allies","903"
"","3314","image-multi-choice","175","1186038","0.0-1.0-174.0","{""Q0"":""Swamp Sparrow""}","Swamp Sparrow","New World Sparrows and Allies","904"
"","3255","image-multi-choice","176","1190301","0.0-1.0-175.0","{""Q0"":""Magnolia Warbler""}","Townsend's Warbler","Wood-Warblers","881"
"","8499","image-multi-choice","177","1199808","0.0-1.0-176.0","{""Q0"":""Vesper Sparrow""}","American Tree Sparrow","New World Sparrows and Allies","894"
"","2266","image-multi-choice","178","1203082","0.0-1.0-177.0","{""Q0"":""Fox Sparrow""}","Fox Sparrow","New World Sparrows and Allies","901"
"","4000","image-multi-choice","179","1208088","0.0-1.0-178.0","{""Q0"":""American Tree Sparrow""}","Lincoln's Sparrow","New World Sparrows and Allies","903"
"","3518","image-multi-choice","180","1220046","0.0-1.0-179.0","{""Q0"":""Blackburnian Warbler""}","Magnolia Warbler","Wood-Warblers","758"
"","2964","image-multi-choice","181","1224018","0.0-1.0-180.0","{""Q0"":""Tennessee Warbler""}","Orange-crowned Warbler","Wood-Warblers","867"
"","7395","image-multi-choice","182","1232422","0.0-1.0-181.0","{""Q0"":""Nashville Warbler""}","Tennessee Warbler","Wood-Warblers","866"
"","4293","image-multi-choice","183","1237721","0.0-1.0-182.0","{""Q0"":""American Tree Sparrow""}","Vesper Sparrow","New World Sparrows and Allies","898"
"","4675","image-multi-choice","184","1243402","0.0-1.0-183.0","{""Q0"":""Orange-crowned Warbler""}","Blackburnian Warbler","Wood-Warblers","874"
"","3954","image-multi-choice","185","1248363","0.0-1.0-184.0","{""Q0"":""Swamp Sparrow""}","Lincoln's Sparrow","New World Sparrows and Allies","903"
"","5189","image-multi-choice","186","1254562","0.0-1.0-185.0","{""Q0"":""Magnolia Warbler""}","Townsend's Warbler","Wood-Warblers","881"
"","4621","image-multi-choice","187","1260187","0.0-1.0-186.0","{""Q0"":""Ovenbird""}","Ovenbird","Wood-Warblers","860"
"","2123","image-multi-choice","188","1263314","0.0-1.0-187.0","{""Q0"":""Yellow Warbler""}","Orange-crowned Warbler","Wood-Warblers","867"
"","4390","image-multi-choice","189","1268715","0.0-1.0-188.0","{""Q0"":""Chipping Sparrow""}","Chipping Sparrow","New World Sparrows and Allies","769"
"","5025","image-multi-choice","190","1274745","0.0-1.0-189.0","{""Q0"":""Swamp Sparrow""}","American Tree Sparrow","New World Sparrows and Allies","894"
"","6723","image-multi-choice","191","1282474","0.0-1.0-190.0","{""Q0"":""Lincoln's Sparrow""}","Vesper Sparrow","New World Sparrows and Allies","898"
"","4504","image-multi-choice","192","1287986","0.0-1.0-191.0","{""Q0"":""Song Sparrow""}","Lincoln's Sparrow","New World Sparrows and Allies","903"
"","3596","image-multi-choice","193","1292587","0.0-1.0-192.0","{""Q0"":""Tennessee Warbler""}","Tennessee Warbler","Wood-Warblers","866"
"","3223","image-multi-choice","194","1296818","0.0-1.0-193.0","{""Q0"":""Swamp Sparrow""}","American Tree Sparrow","New World Sparrows and Allies","894"
"","6001","image-multi-choice","195","1303826","0.0-1.0-194.0","{""Q0"":""Lincoln's Sparrow""}","Lark Sparrow","New World Sparrows and Allies","899"
"","2875","image-multi-choice","196","1307708","0.0-1.0-195.0","{""Q0"":""Tennessee Warbler""}","Tennessee Warbler","Wood-Warblers","866"
"","2323","image-multi-choice","197","1311038","0.0-1.0-196.0","{""Q0"":""Northern Waterthrush""}","Northern Waterthrush","Wood-Warblers","862"
"","2640","image-multi-choice","198","1314683","0.0-1.0-197.0","{""Q0"":""White-throated Sparrow""}","White-throated Sparrow","New World Sparrows and Allies","764"
"","1909","image-multi-choice","199","1317596","0.0-1.0-198.0","{""Q0"":""Yellow Warbler""}","Yellow Warbler","Wood-Warblers","875"
"","1803","image-multi-choice","200","1320409","0.0-1.0-199.0","{""Q0"":""White-crowned Sparrow""}","White-crowned Sparrow","New World Sparrows and Allies","766"
"","4721","image-multi-choice","201","1326135","0.0-1.0-200.0","{""Q0"":""Chipping Sparrow""}","American Tree Sparrow","New World Sparrows and Allies","894"
"","3607","image-multi-choice","202","1330748","0.0-1.0-201.0","{""Q0"":""Ovenbird""}","Ovenbird","Wood-Warblers","860"
"","3527","image-multi-choice","203","1335282","0.0-1.0-202.0","{""Q0"":""Blackburnian Warbler""}","Magnolia Warbler","Wood-Warblers","758"
"","4438","image-multi-choice","204","1340727","0.0-1.0-203.0","{""Q0"":""Black-and-white Warbler""}","Black-and-white Warbler","Wood-Warblers","864"
"","2267","image-multi-choice","205","1344000","0.0-1.0-204.0","{""Q0"":""Northern Waterthrush""}","Northern Waterthrush","Wood-Warblers","862"
"","2694","image-multi-choice","206","1347702","0.0-1.0-205.0","{""Q0"":""Swamp Sparrow""}","American Tree Sparrow","New World Sparrows and Allies","894"
"","4798","image-multi-choice","207","1353507","0.0-1.0-206.0","{""Q0"":""Blackburnian Warbler""}","Magnolia Warbler","Wood-Warblers","758"
"","5676","image-multi-choice","208","1360189","0.0-1.0-207.0","{""Q0"":""Northern Waterthrush""}","Blackburnian Warbler","Wood-Warblers","874"
"","2548","image-multi-choice","209","1363744","0.0-1.0-208.0","{""Q0"":""Swamp Sparrow""}","Swamp Sparrow","New World Sparrows and Allies","904"
"","2728","image-multi-choice","210","1367479","0.0-1.0-209.0","{""Q0"":""American Tree Sparrow""}","American Tree Sparrow","New World Sparrows and Allies","894"
"","2299","image-multi-choice","211","1370787","0.0-1.0-210.0","{""Q0"":""Ovenbird""}","Ovenbird","Wood-Warblers","860"
"","3321","image-multi-choice","212","1375118","0.0-1.0-211.0","{""Q0"":""Swamp Sparrow""}","Swamp Sparrow","New World Sparrows and Allies","904"
"","5798","image-multi-choice","213","1381924","0.0-1.0-212.0","{""Q0"":""Lincoln's Sparrow""}","Song Sparrow","New World Sparrows and Allies","902"
"","3347","image-multi-choice","214","1386278","0.0-1.0-213.0","{""Q0"":""Orange-crowned Warbler""}","Blackburnian Warbler","Wood-Warblers","874"
"","6341","image-multi-choice","215","1393625","0.0-1.0-214.0","{""Q0"":""American Tree Sparrow""}","Vesper Sparrow","New World Sparrows and Allies","898"
"","3121","image-multi-choice","216","1397753","0.0-1.0-215.0","{""Q0"":""Orange-crowned Warbler""}","Blackburnian Warbler","Wood-Warblers","874"
"","5057","image-multi-choice","217","1403817","0.0-1.0-216.0","{""Q0"":""Song Sparrow""}","Song Sparrow","New World Sparrows and Allies","902"
"","2988","image-multi-choice","218","1407811","0.0-1.0-217.0","{""Q0"":""Townsend's Warbler""}","Tennessee Warbler","Wood-Warblers","866"
"","3042","image-multi-choice","219","1411861","0.0-1.0-218.0","{""Q0"":""Black-and-white Warbler""}","Black-and-white Warbler","Wood-Warblers","864"
"","2838","image-multi-choice","220","1415709","0.0-1.0-219.0","{""Q0"":""Ovenbird""}","Ovenbird","Wood-Warblers","860"
"","1785","image-multi-choice","221","1418498","0.0-1.0-220.0","{""Q0"":""White-throated Sparrow""}","White-throated Sparrow","New World Sparrows and Allies","764"
"","10076","image-multi-choice","222","1429580","0.0-1.0-221.0","{""Q0"":""Vesper Sparrow""}","Vesper Sparrow","New World Sparrows and Allies","898"
"","4314","image-multi-choice","223","1434901","0.0-1.0-222.0","{""Q0"":""Swamp Sparrow""}","American Tree Sparrow","New World Sparrows and Allies","894"
"","1783","image-multi-choice","224","1437691","0.0-1.0-223.0","{""Q0"":""Yellow Warbler""}","Yellow Warbler","Wood-Warblers","875"
"","2448","image-multi-choice","225","1441145","0.0-1.0-224.0","{""Q0"":""Northern Waterthrush""}","Northern Waterthrush","Wood-Warblers","862"
"","3777","image-multi-choice","226","1445926","0.0-1.0-225.0","{""Q0"":""Magnolia Warbler""}","Blackburnian Warbler","Wood-Warblers","874"
"","2604","image-multi-choice","227","1449537","0.0-1.0-226.0","{""Q0"":""White-throated Sparrow""}","White-throated Sparrow","New World Sparrows and Allies","764"
"","2785","image-multi-choice","228","1453329","0.0-1.0-227.0","{""Q0"":""American Tree Sparrow""}","Song Sparrow","New World Sparrows and Allies","902"
"","2358","image-multi-choice","229","1456693","0.0-1.0-228.0","{""Q0"":""Ovenbird""}","Ovenbird","Wood-Warblers","860"
"","6867","image-multi-choice","230","1464568","0.0-1.0-229.0","{""Q0"":""Blackburnian Warbler""}","Townsend's Warbler","Wood-Warblers","881"
"","4596","image-multi-choice","231","1470170","0.0-1.0-230.0","{""Q0"":""Nashville Warbler""}","Nashville Warbler","Wood-Warblers","868"
"","2772","image-multi-choice","232","1473950","0.0-1.0-231.0","{""Q0"":""Fox Sparrow""}","Fox Sparrow","New World Sparrows and Allies","901"
"","2445","image-multi-choice","233","1477404","0.0-1.0-232.0","{""Q0"":""Ovenbird""}","Ovenbird","Wood-Warblers","860"
"","4808","image-multi-choice","234","1483220","0.0-1.0-233.0","{""Q0"":""Blackburnian Warbler""}","Magnolia Warbler","Wood-Warblers","758"
"","5280","image-multi-choice","235","1489509","0.0-1.0-234.0","{""Q0"":""Chipping Sparrow""}","American Tree Sparrow","New World Sparrows and Allies","894"
"","3280","image-multi-choice","236","1493795","0.0-1.0-235.0","{""Q0"":""Orange-crowned Warbler""}","Blackburnian Warbler","Wood-Warblers","874"
"","6743","image-multi-choice","237","1501547","0.0-1.0-236.0","{""Q0"":""Swamp Sparrow""}","Chipping Sparrow","New World Sparrows and Allies","769"
"","2074","image-multi-choice","238","1504629","0.0-1.0-237.0","{""Q0"":""Fox Sparrow""}","Fox Sparrow","New World Sparrows and Allies","901"
"","4529","image-multi-choice","239","1510164","0.0-1.0-238.0","{""Q0"":""Lark Sparrow""}","Vesper Sparrow","New World Sparrows and Allies","898"
"","2461","image-multi-choice","240","1519625","0.0-1.0-239.0","{""Q0"":""Northern Waterthrush""}","Northern Waterthrush","Wood-Warblers","862"
"","2289","image-multi-choice","241","1522922","0.0-1.0-240.0","{""Q0"":""Lark Sparrow""}","Lark Sparrow","New World Sparrows and Allies","899"
"","3697","image-multi-choice","242","1527624","0.0-1.0-241.0","{""Q0"":""Nashville Warbler""}","Nashville Warbler","Wood-Warblers","868"
"","2536","image-multi-choice","243","1531168","0.0-1.0-242.0","{""Q0"":""Ovenbird""}","Ovenbird","Wood-Warblers","860"
"","4383","image-multi-choice","244","1536557","0.0-1.0-243.0","{""Q0"":""Northern Waterthrush""}","Northern Waterthrush","Wood-Warblers","862"
"","3888","image-multi-choice","245","1541451","0.0-1.0-244.0","{""Q0"":""Tennessee Warbler""}","Orange-crowned Warbler","Wood-Warblers","867"
"","3426","image-multi-choice","246","1545883","0.0-1.0-245.0","{""Q0"":""Lark Sparrow""}","Chipping Sparrow","New World Sparrows and Allies","769"
"","2390","image-multi-choice","247","1549280","0.0-1.0-246.0","{""Q0"":""Tennessee Warbler""}","Tennessee Warbler","Wood-Warblers","866"
"","2053","image-multi-choice","248","1552341","0.0-1.0-247.0","{""Q0"":""Yellow Warbler""}","Yellow Warbler","Wood-Warblers","875"
"","5599","image-multi-choice","249","1558944","0.0-1.0-248.0","{""Q0"":""Lincoln's Sparrow""}","Lincoln's Sparrow","New World Sparrows and Allies","903"
"","3371","image-multi-choice","250","1563321","0.0-1.0-249.0","{""Q0"":""Vesper Sparrow""}","Vesper Sparrow","New World Sparrows and Allies","898"
"","3751","image-multi-choice","251","1568080","0.0-1.0-250.0","{""Q0"":""Black-and-white Warbler""}","Black-and-white Warbler","Wood-Warblers","864"
"","3851","image-multi-choice","252","1572940","0.0-1.0-251.0","{""Q0"":""American Tree Sparrow""}","Song Sparrow","New World Sparrows and Allies","902"
"","4832","image-multi-choice","253","1578778","0.0-1.0-252.0","{""Q0"":""Lincoln's Sparrow""}","Chipping Sparrow","New World Sparrows and Allies","769"
"","4268","image-multi-choice","254","1584055","0.0-1.0-253.0","{""Q0"":""Black-and-white Warbler""}","Magnolia Warbler","Wood-Warblers","758"
"","7137","image-multi-choice","255","1592200","0.0-1.0-254.0","{""Q0"":""Song Sparrow""}","Lincoln's Sparrow","New World Sparrows and Allies","903"
"","2165","image-multi-choice","256","1595372","0.0-1.0-255.0","{""Q0"":""White-throated Sparrow""}","White-throated Sparrow","New World Sparrows and Allies","764"
"","2438","image-multi-choice","257","1598815","0.0-1.0-256.0","{""Q0"":""Fox Sparrow""}","Fox Sparrow","New World Sparrows and Allies","901"
"","6308","image-multi-choice","258","1606127","0.0-1.0-257.0","{""Q0"":""Orange-crowned Warbler""}","Black-and-white Warbler","Wood-Warblers","864"
"","4496","image-multi-choice","259","1611629","0.0-1.0-258.0","{""Q0"":""Chipping Sparrow""}","Chipping Sparrow","New World Sparrows and Allies","769"
"","2559","image-multi-choice","260","1615195","0.0-1.0-259.0","{""Q0"":""Tennessee Warbler""}","Orange-crowned Warbler","Wood-Warblers","867"
"","2854","image-multi-choice","261","1619053","0.0-1.0-260.0","{""Q0"":""Lark Sparrow""}","Lark Sparrow","New World Sparrows and Allies","899"
"","6215","image-multi-choice","262","1626276","0.0-1.0-261.0","{""Q0"":""Lincoln's Sparrow""}","Lincoln's Sparrow","New World Sparrows and Allies","903"
"","2753","image-multi-choice","263","1630034","0.0-1.0-262.0","{""Q0"":""Northern Waterthrush""}","Northern Waterthrush","Wood-Warblers","862"
"","3412","image-multi-choice","264","1634455","0.0-1.0-263.0","{""Q0"":""Nashville Warbler""}","Nashville Warbler","Wood-Warblers","868"
"","2748","image-multi-choice","265","1638212","0.0-1.0-264.0","{""Q0"":""Lark Sparrow""}","Lark Sparrow","New World Sparrows and Allies","899"
"","3704","image-multi-choice","266","1642926","0.0-1.0-265.0","{""Q0"":""Townsend's Warbler""}","Orange-crowned Warbler","Wood-Warblers","867"
"","6115","image-multi-choice","267","1650047","0.0-1.0-266.0","{""Q0"":""Blackburnian Warbler""}","Magnolia Warbler","Wood-Warblers","758"
"","2774","image-multi-choice","268","1653827","0.0-1.0-267.0","{""Q0"":""Tennessee Warbler""}","Orange-crowned Warbler","Wood-Warblers","867"
"","1623","image-multi-choice","269","1656460","0.0-1.0-268.0","{""Q0"":""Yellow Warbler""}","Yellow Warbler","Wood-Warblers","875"
"","6138","image-multi-choice","270","1663604","0.0-1.0-269.0","{""Q0"":""Townsend's Warbler""}","Orange-crowned Warbler","Wood-Warblers","867"
"","3146","image-multi-choice","271","1667755","0.0-1.0-270.0","{""Q0"":""American Tree Sparrow""}","Lincoln's Sparrow","New World Sparrows and Allies","903"
"","2740","image-multi-choice","272","1671501","0.0-1.0-271.0","{""Q0"":""Lark Sparrow""}","Lark Sparrow","New World Sparrows and Allies","899"
"","3078","image-multi-choice","273","1675585","0.0-1.0-272.0","{""Q0"":""Lincoln's Sparrow""}","Lincoln's Sparrow","New World Sparrows and Allies","903"
"","5069","image-multi-choice","274","1681660","0.0-1.0-273.0","{""Q0"":""Nashville Warbler""}","Nashville Warbler","Wood-Warblers","868"
"","2918","image-multi-choice","275","1685586","0.0-1.0-274.0","{""Q0"":""Lark Sparrow""}","Lark Sparrow","New World Sparrows and Allies","899"
"","3087","image-multi-choice","276","1689682","0.0-1.0-275.0","{""Q0"":""Chipping Sparrow""}","Chipping Sparrow","New World Sparrows and Allies","769"
"","1998","image-multi-choice","277","1692685","0.0-1.0-276.0","{""Q0"":""White-throated Sparrow""}","White-throated Sparrow","New World Sparrows and Allies","764"
"","4552","image-multi-choice","278","1698243","0.0-1.0-277.0","{""Q0"":""Song Sparrow""}","Song Sparrow","New World Sparrows and Allies","902"
"","2054","image-multi-choice","279","1701303","0.0-1.0-278.0","{""Q0"":""Ovenbird""}","Ovenbird","Wood-Warblers","860"
"","2854","image-multi-choice","280","1705161","0.0-1.0-279.0","{""Q0"":""White-throated Sparrow""}","Lark Sparrow","New World Sparrows and Allies","899"
"","4743","image-multi-choice","281","1710910","0.0-1.0-280.0","{""Q0"":""Vesper Sparrow""}","Chipping Sparrow","New World Sparrows and Allies","769"
"","10623","image-multi-choice","282","1722543","0.0-1.0-281.0","{""Q0"":""Lincoln's Sparrow""}","Lark Sparrow","New World Sparrows and Allies","899"
"","3810","image-multi-choice","283","1727358","0.0-1.0-282.0","{""Q0"":""Song Sparrow""}","Song Sparrow","New World Sparrows and Allies","902"
"","2605","image-multi-choice","284","1730969","0.0-1.0-283.0","{""Q0"":""White-throated Sparrow""}","White-throated Sparrow","New World Sparrows and Allies","764"
"","5115","image-multi-choice","285","1737089","0.0-1.0-284.0","{""Q0"":""Blackburnian Warbler""}","Magnolia Warbler","Wood-Warblers","758"
"","2888","image-multi-choice","286","1740982","0.0-1.0-285.0","{""Q0"":""Tennessee Warbler""}","Orange-crowned Warbler","Wood-Warblers","867"
"","6586","image-multi-choice","287","1748576","0.0-1.0-286.0","{""Q0"":""American Tree Sparrow""}","Lincoln's Sparrow","New World Sparrows and Allies","903"
"","2291","image-multi-choice","288","1751872","0.0-1.0-287.0","{""Q0"":""Lark Sparrow""}","Lark Sparrow","New World Sparrows and Allies","899"
"","3538","image-multi-choice","289","1756417","0.0-1.0-288.0","{""Q0"":""Magnolia Warbler""}","Townsend's Warbler","Wood-Warblers","881"
"","2382","image-multi-choice","290","1759803","0.0-1.0-289.0","{""Q0"":""Black-and-white Warbler""}","Black-and-white Warbler","Wood-Warblers","864"
"","3147","image-multi-choice","291","1763954","0.0-1.0-290.0","{""Q0"":""Tennessee Warbler""}","Tennessee Warbler","Wood-Warblers","866"
"","4121","image-multi-choice","292","1769084","0.0-1.0-291.0","{""Q0"":""American Tree Sparrow""}","American Tree Sparrow","New World Sparrows and Allies","894"
"","3371","image-multi-choice","293","1773460","0.0-1.0-292.0","{""Q0"":""Chipping Sparrow""}","Chipping Sparrow","New World Sparrows and Allies","769"
"","2470","image-multi-choice","294","1776937","0.0-1.0-293.0","{""Q0"":""Lark Sparrow""}","Lark Sparrow","New World Sparrows and Allies","899"
"","9456","image-multi-choice","295","1787400","0.0-1.0-294.0","{""Q0"":""Blackburnian Warbler""}","Magnolia Warbler","Wood-Warblers","758"
"","1876","image-multi-choice","296","1790280","0.0-1.0-295.0","{""Q0"":""Yellow Warbler""}","Yellow Warbler","Wood-Warblers","875"
"","2177","image-multi-choice","297","1793463","0.0-1.0-296.0","{""Q0"":""White-crowned Sparrow""}","White-crowned Sparrow","New World Sparrows and Allies","766"
"","3269","image-multi-choice","298","1797738","0.0-1.0-297.0","{""Q0"":""Swamp Sparrow""}","Swamp Sparrow","New World Sparrows and Allies","904"
"","2988","image-multi-choice","299","1801732","0.0-1.0-298.0","{""Q0"":""Townsend's Warbler""}","Orange-crowned Warbler","Wood-Warblers","867"
"","3176","image-multi-choice","300","1810799","0.0-1.0-299.0","{""Q0"":""American Tree Sparrow""}","Vesper Sparrow","New World Sparrows and Allies","898"
"[{""page_index"":0,""viewing_time"":2133}]","2133","instructions","301","1813938","0.0-2.0","","","",""
