[{"view_history":"[{\"page_index\":0,\"viewing_time\":4272}]","rt":4273,"trial_type":"instructions","trial_index":0,"time_elapsed":4273,"internal_node_id":"0.0-0.0"},{"rt":11702,"responses":"{\"Q0\":\"Chipping Sparrow\"}","bird":["American Tree Sparrow"],"family":["New World Sparrows and Allies"],"class":["894"],"trial_type":"image-multi-choice","trial_index":1,"time_elapsed":16991,"internal_node_id":"0.0-1.0-0.0"},{"rt":10665,"responses":"{\"Q0\":\"Yellow Warbler\"}","bird":["Tennessee Warbler"],"family":["Wood-Warblers"],"class":["866"],"trial_type":"image-multi-choice","trial_index":2,"time_elapsed":28667,"internal_node_id":"0.0-1.0-1.0"},{"rt":11808,"responses":"{\"Q0\":\"White-crowned Sparrow\"}","bird":["White-crowned Sparrow"],"family":["New World Sparrows and Allies"],"class":["766"],"trial_type":"image-multi-choice","trial_index":3,"time_elapsed":41484,"internal_node_id":"0.0-1.0-2.0"},{"rt":13639,"responses":"{\"Q0\":\"Lark Sparrow\"}","bird":["American Tree Sparrow"],"family":["New World Sparrows and Allies"],"class":["894"],"trial_type":"image-multi-choice","trial_index":4,"time_elapsed":56132,"internal_node_id":"0.0-1.0-3.0"},{"rt":10860,"responses":"{\"Q0\":\"White-crowned Sparrow\"}","bird":["White-crowned Sparrow"],"family":["New World Sparrows and Allies"],"class":["766"],"trial_type":"image-multi-choice","trial_index":5,"time_elapsed":68001,"internal_node_id":"0.0-1.0-4.0"},{"rt":6844,"responses":"{\"Q0\":\"Lark Sparrow\"}","bird":["Townsend's Warbler"],"family":["Wood-Warblers"],"class":["881"],"trial_type":"image-multi-choice","trial_index":6,"time_elapsed":75853,"internal_node_id":"0.0-1.0-5.0"},{"rt":4437,"responses":"{\"Q0\":\"Chipping Sparrow\"}","bird":["Vesper Sparrow"],"family":["New World Sparrows and Allies"],"class":["898"],"trial_type":"image-multi-choice","trial_index":7,"time_elapsed":81300,"internal_node_id":"0.0-1.0-6.0"},{"rt":4579,"responses":"{\"Q0\":\"Yellow Warbler\"}","bird":["Nashville Warbler"],"family":["Wood-Warblers"],"class":["868"],"trial_type":"image-multi-choice","trial_index":8,"time_elapsed":86887,"internal_node_id":"0.0-1.0-7.0"},{"rt":4535,"responses":"{\"Q0\":\"American Tree Sparrow\"}","bird":["Northern Waterthrush"],"family":["Wood-Warblers"],"class":["862"],"trial_type":"image-multi-choice","trial_index":9,"time_elapsed":92431,"internal_node_id":"0.0-1.0-8.0"},{"rt":7404,"responses":"{\"Q0\":\"Fox Sparrow\"}","bird":["Ovenbird"],"family":["Wood-Warblers"],"class":["860"],"trial_type":"image-multi-choice","trial_index":10,"time_elapsed":100842,"internal_node_id":"0.0-1.0-9.0"},{"rt":4014,"responses":"{\"Q0\":\"Song Sparrow\"}","bird":["Lincoln's Sparrow"],"family":["New World Sparrows and Allies"],"class":["903"],"trial_type":"image-multi-choice","trial_index":11,"time_elapsed":105864,"internal_node_id":"0.0-1.0-10.0"},{"rt":5143,"responses":"{\"Q0\":\"Chipping Sparrow\"}","bird":["Townsend's Warbler"],"family":["Wood-Warblers"],"class":["881"],"trial_type":"image-multi-choice","trial_index":12,"time_elapsed":112017,"internal_node_id":"0.0-1.0-11.0"},{"rt":5234,"responses":"{\"Q0\":\"Song Sparrow\"}","bird":["Fox Sparrow"],"family":["New World Sparrows and Allies"],"class":["901"],"trial_type":"image-multi-choice","trial_index":13,"time_elapsed":118258,"internal_node_id":"0.0-1.0-12.0"},{"rt":3986,"responses":"{\"Q0\":\"Townsend's Warbler\"}","bird":["Blackburnian Warbler"],"family":["Wood-Warblers"],"class":["874"],"trial_type":"image-multi-choice","trial_index":14,"time_elapsed":123252,"internal_node_id":"0.0-1.0-13.0"},{"rt":7659,"responses":"{\"Q0\":\"Magnolia Warbler\"}","bird":["Vesper Sparrow"],"family":["New World Sparrows and Allies"],"class":["898"],"trial_type":"image-multi-choice","trial_index":15,"time_elapsed":131917,"internal_node_id":"0.0-1.0-14.0"},{"rt":4905,"responses":"{\"Q0\":\"White-crowned Sparrow\"}","bird":["Black-and-white Warbler"],"family":["Wood-Warblers"],"class":["864"],"trial_type":"image-multi-choice","trial_index":16,"time_elapsed":137829,"internal_node_id":"0.0-1.0-15.0"},{"rt":6137,"responses":"{\"Q0\":\"Blackburnian Warbler\"}","bird":["Nashville Warbler"],"family":["Wood-Warblers"],"class":["868"],"trial_type":"image-multi-choice","trial_index":17,"time_elapsed":144974,"internal_node_id":"0.0-1.0-16.0"},{"rt":4459,"responses":"{\"Q0\":\"Lincoln's Sparrow\"}","bird":["Lincoln's Sparrow"],"family":["New World Sparrows and Allies"],"class":["903"],"trial_type":"image-multi-choice","trial_index":18,"time_elapsed":150440,"internal_node_id":"0.0-1.0-17.0"},{"rt":4257,"responses":"{\"Q0\":\"Yellow Warbler\"}","bird":["Nashville Warbler"],"family":["Wood-Warblers"],"class":["868"],"trial_type":"image-multi-choice","trial_index":19,"time_elapsed":155705,"internal_node_id":"0.0-1.0-18.0"},{"rt":6892,"responses":"{\"Q0\":\"Ovenbird\"}","bird":["Lark Sparrow"],"family":["New World Sparrows and Allies"],"class":["899"],"trial_type":"image-multi-choice","trial_index":20,"time_elapsed":163603,"internal_node_id":"0.0-1.0-19.0"},{"rt":5757,"responses":"{\"Q0\":\"Vesper Sparrow\"}","bird":["Magnolia Warbler"],"family":["Wood-Warblers"],"class":["758"],"trial_type":"image-multi-choice","trial_index":21,"time_elapsed":170368,"internal_node_id":"0.0-1.0-20.0"},{"rt":7811,"responses":"{\"Q0\":\"Lark Sparrow\"}","bird":["Townsend's Warbler"],"family":["Wood-Warblers"],"class":["881"],"trial_type":"image-multi-choice","trial_index":22,"time_elapsed":179188,"internal_node_id":"0.0-1.0-21.0"},{"rt":3201,"responses":"{\"Q0\":\"Black-and-white Warbler\"}","bird":["Swamp Sparrow"],"family":["New World Sparrows and Allies"],"class":["904"],"trial_type":"image-multi-choice","trial_index":23,"time_elapsed":183395,"internal_node_id":"0.0-1.0-22.0"},{"rt":4663,"responses":"{\"Q0\":\"Yellow Warbler\"}","bird":["Tennessee Warbler"],"family":["Wood-Warblers"],"class":["866"],"trial_type":"image-multi-choice","trial_index":24,"time_elapsed":189065,"internal_node_id":"0.0-1.0-23.0"},{"rt":3971,"responses":"{\"Q0\":\"Swamp Sparrow\"}","bird":["Ovenbird"],"family":["Wood-Warblers"],"class":["860"],"trial_type":"image-multi-choice","trial_index":25,"time_elapsed":194044,"internal_node_id":"0.0-1.0-24.0"},{"rt":4652,"responses":"{\"Q0\":\"White-throated Sparrow\"}","bird":["White-crowned Sparrow"],"family":["New World Sparrows and Allies"],"class":["766"],"trial_type":"image-multi-choice","trial_index":26,"time_elapsed":199704,"internal_node_id":"0.0-1.0-25.0"},{"rt":4530,"responses":"{\"Q0\":\"Chipping Sparrow\"}","bird":["Vesper Sparrow"],"family":["New World Sparrows and Allies"],"class":["898"],"trial_type":"image-multi-choice","trial_index":27,"time_elapsed":205241,"internal_node_id":"0.0-1.0-26.0"},{"rt":3041,"responses":"{\"Q0\":\"Yellow Warbler\"}","bird":["Orange-crowned Warbler"],"family":["Wood-Warblers"],"class":["867"],"trial_type":"image-multi-choice","trial_index":28,"time_elapsed":209288,"internal_node_id":"0.0-1.0-27.0"},{"rt":5937,"responses":"{\"Q0\":\"Chipping Sparrow\"}","bird":["American Tree Sparrow"],"family":["New World Sparrows and Allies"],"class":["894"],"trial_type":"image-multi-choice","trial_index":29,"time_elapsed":216233,"internal_node_id":"0.0-1.0-28.0"},{"rt":3888,"responses":"{\"Q0\":\"Nashville Warbler\"}","bird":["Tennessee Warbler"],"family":["Wood-Warblers"],"class":["866"],"trial_type":"image-multi-choice","trial_index":30,"time_elapsed":221128,"internal_node_id":"0.0-1.0-29.0"},{"rt":3880,"responses":"{\"Q0\":\"Northern Waterthrush\"}","bird":["Magnolia Warbler"],"family":["Wood-Warblers"],"class":["758"],"trial_type":"image-multi-choice","trial_index":31,"time_elapsed":226014,"internal_node_id":"0.0-1.0-30.0"},{"rt":5097,"responses":"{\"Q0\":\"White-crowned Sparrow\"}","bird":["Blackburnian Warbler"],"family":["Wood-Warblers"],"class":["874"],"trial_type":"image-multi-choice","trial_index":32,"time_elapsed":232119,"internal_node_id":"0.0-1.0-31.0"},{"rt":5602,"responses":"{\"Q0\":\"Blackburnian Warbler\"}","bird":["Tennessee Warbler"],"family":["Wood-Warblers"],"class":["866"],"trial_type":"image-multi-choice","trial_index":33,"time_elapsed":238730,"internal_node_id":"0.0-1.0-32.0"},{"rt":4120,"responses":"{\"Q0\":\"American Tree Sparrow\"}","bird":["Vesper Sparrow"],"family":["New World Sparrows and Allies"],"class":["898"],"trial_type":"image-multi-choice","trial_index":34,"time_elapsed":243859,"internal_node_id":"0.0-1.0-33.0"},{"rt":3885,"responses":"{\"Q0\":\"Tennessee Warbler\"}","bird":["Orange-crowned Warbler"],"family":["Wood-Warblers"],"class":["867"],"trial_type":"image-multi-choice","trial_index":35,"time_elapsed":248751,"internal_node_id":"0.0-1.0-34.0"},{"rt":3343,"responses":"{\"Q0\":\"White-crowned Sparrow\"}","bird":["White-crowned Sparrow"],"family":["New World Sparrows and Allies"],"class":["766"],"trial_type":"image-multi-choice","trial_index":36,"time_elapsed":253101,"internal_node_id":"0.0-1.0-35.0"},{"rt":2813,"responses":"{\"Q0\":\"Yellow Warbler\"}","bird":["Fox Sparrow"],"family":["New World Sparrows and Allies"],"class":["901"],"trial_type":"image-multi-choice","trial_index":37,"time_elapsed":256922,"internal_node_id":"0.0-1.0-36.0"},{"rt":4980,"responses":"{\"Q0\":\"Ovenbird\"}","bird":["Swamp Sparrow"],"family":["New World Sparrows and Allies"],"class":["904"],"trial_type":"image-multi-choice","trial_index":38,"time_elapsed":262909,"internal_node_id":"0.0-1.0-37.0"},{"rt":7973,"responses":"{\"Q0\":\"Nashville Warbler\"}","bird":["Yellow Warbler"],"family":["Wood-Warblers"],"class":["875"],"trial_type":"image-multi-choice","trial_index":39,"time_elapsed":271889,"internal_node_id":"0.0-1.0-38.0"},{"rt":6148,"responses":"{\"Q0\":\"White-crowned Sparrow\"}","bird":["Black-and-white Warbler"],"family":["Wood-Warblers"],"class":["864"],"trial_type":"image-multi-choice","trial_index":40,"time_elapsed":279043,"internal_node_id":"0.0-1.0-39.0"},{"rt":3070,"responses":"{\"Q0\":\"American Tree Sparrow\"}","bird":["Fox Sparrow"],"family":["New World Sparrows and Allies"],"class":["901"],"trial_type":"image-multi-choice","trial_index":41,"time_elapsed":283120,"internal_node_id":"0.0-1.0-40.0"},{"rt":3263,"responses":"{\"Q0\":\"Black-and-white Warbler\"}","bird":["Northern Waterthrush"],"family":["Wood-Warblers"],"class":["862"],"trial_type":"image-multi-choice","trial_index":42,"time_elapsed":287389,"internal_node_id":"0.0-1.0-41.0"},{"rt":3053,"responses":"{\"Q0\":\"Yellow Warbler\"}","bird":["Nashville Warbler"],"family":["Wood-Warblers"],"class":["868"],"trial_type":"image-multi-choice","trial_index":43,"time_elapsed":291449,"internal_node_id":"0.0-1.0-42.0"},{"rt":4468,"responses":"{\"Q0\":\"White-throated Sparrow\"}","bird":["Blackburnian Warbler"],"family":["Wood-Warblers"],"class":["874"],"trial_type":"image-multi-choice","trial_index":44,"time_elapsed":296924,"internal_node_id":"0.0-1.0-43.0"},{"rt":3871,"responses":"{\"Q0\":\"Magnolia Warbler\"}","bird":["Orange-crowned Warbler"],"family":["Wood-Warblers"],"class":["867"],"trial_type":"image-multi-choice","trial_index":45,"time_elapsed":301801,"internal_node_id":"0.0-1.0-44.0"},{"rt":5143,"responses":"{\"Q0\":\"Song Sparrow\"}","bird":["Blackburnian Warbler"],"family":["Wood-Warblers"],"class":["874"],"trial_type":"image-multi-choice","trial_index":46,"time_elapsed":307952,"internal_node_id":"0.0-1.0-45.0"},{"rt":2854,"responses":"{\"Q0\":\"Yellow Warbler\"}","bird":["Nashville Warbler"],"family":["Wood-Warblers"],"class":["868"],"trial_type":"image-multi-choice","trial_index":47,"time_elapsed":311814,"internal_node_id":"0.0-1.0-46.0"},{"rt":4992,"responses":"{\"Q0\":\"Blackburnian Warbler\"}","bird":["Northern Waterthrush"],"family":["Wood-Warblers"],"class":["862"],"trial_type":"image-multi-choice","trial_index":48,"time_elapsed":317813,"internal_node_id":"0.0-1.0-47.0"},{"rt":4185,"responses":"{\"Q0\":\"Chipping Sparrow\"}","bird":["Fox Sparrow"],"family":["New World Sparrows and Allies"],"class":["901"],"trial_type":"image-multi-choice","trial_index":49,"time_elapsed":323006,"internal_node_id":"0.0-1.0-48.0"},{"rt":5910,"responses":"{\"Q0\":\"American Tree Sparrow\"}","bird":["Swamp Sparrow"],"family":["New World Sparrows and Allies"],"class":["904"],"trial_type":"image-multi-choice","trial_index":50,"time_elapsed":329923,"internal_node_id":"0.0-1.0-49.0"},{"rt":4832,"responses":"{\"Q0\":\"Yellow Warbler\"}","bird":["Nashville Warbler"],"family":["Wood-Warblers"],"class":["868"],"trial_type":"image-multi-choice","trial_index":51,"time_elapsed":335762,"internal_node_id":"0.0-1.0-50.0"},{"rt":3233,"responses":"{\"Q0\":\"White-crowned Sparrow\"}","bird":["Black-and-white Warbler"],"family":["Wood-Warblers"],"class":["864"],"trial_type":"image-multi-choice","trial_index":52,"time_elapsed":340003,"internal_node_id":"0.0-1.0-51.0"},{"rt":2942,"responses":"{\"Q0\":\"Orange-crowned Warbler\"}","bird":["American Tree Sparrow"],"family":["New World Sparrows and Allies"],"class":["894"],"trial_type":"image-multi-choice","trial_index":53,"time_elapsed":343952,"internal_node_id":"0.0-1.0-52.0"},{"rt":3176,"responses":"{\"Q0\":\"White-crowned Sparrow\"}","bird":["Black-and-white Warbler"],"family":["Wood-Warblers"],"class":["864"],"trial_type":"image-multi-choice","trial_index":54,"time_elapsed":348136,"internal_node_id":"0.0-1.0-53.0"},{"rt":3848,"responses":"{\"Q0\":\"Song Sparrow\"}","bird":["Townsend's Warbler"],"family":["Wood-Warblers"],"class":["881"],"trial_type":"image-multi-choice","trial_index":55,"time_elapsed":352990,"internal_node_id":"0.0-1.0-54.0"},{"rt":4711,"responses":"{\"Q0\":\"Lincoln's Sparrow\"}","bird":["Lark Sparrow"],"family":["New World Sparrows and Allies"],"class":["899"],"trial_type":"image-multi-choice","trial_index":56,"time_elapsed":358709,"internal_node_id":"0.0-1.0-55.0"},{"rt":4669,"responses":"{\"Q0\":\"Magnolia Warbler\"}","bird":["Ovenbird"],"family":["Wood-Warblers"],"class":["860"],"trial_type":"image-multi-choice","trial_index":57,"time_elapsed":364383,"internal_node_id":"0.0-1.0-56.0"},{"rt":3947,"responses":"{\"Q0\":\"Magnolia Warbler\"}","bird":["Song Sparrow"],"family":["New World Sparrows and Allies"],"class":["902"],"trial_type":"image-multi-choice","trial_index":58,"time_elapsed":369336,"internal_node_id":"0.0-1.0-57.0"},{"rt":4305,"responses":"{\"Q0\":\"Northern Waterthrush\"}","bird":["Chipping Sparrow"],"family":["New World Sparrows and Allies"],"class":["769"],"trial_type":"image-multi-choice","trial_index":59,"time_elapsed":374647,"internal_node_id":"0.0-1.0-58.0"},{"rt":4353,"responses":"{\"Q0\":\"White-throated Sparrow\"}","bird":["Black-and-white Warbler"],"family":["Wood-Warblers"],"class":["864"],"trial_type":"image-multi-choice","trial_index":60,"time_elapsed":391241,"internal_node_id":"0.0-1.0-59.0"},{"rt":4558,"responses":"{\"Q0\":\"Yellow Warbler\"}","bird":["Chipping Sparrow"],"family":["New World Sparrows and Allies"],"class":["769"],"trial_type":"image-multi-choice","trial_index":61,"time_elapsed":396806,"internal_node_id":"0.0-1.0-60.0"},{"rt":7677,"responses":"{\"Q0\":\"Nashville Warbler\"}","bird":["Swamp Sparrow"],"family":["New World Sparrows and Allies"],"class":["904"],"trial_type":"image-multi-choice","trial_index":62,"time_elapsed":405492,"internal_node_id":"0.0-1.0-61.0"},{"rt":4524,"responses":"{\"Q0\":\"Northern Waterthrush\"}","bird":["Nashville Warbler"],"family":["Wood-Warblers"],"class":["868"],"trial_type":"image-multi-choice","trial_index":63,"time_elapsed":411023,"internal_node_id":"0.0-1.0-62.0"},{"rt":3572,"responses":"{\"Q0\":\"Ovenbird\"}","bird":["Lincoln's Sparrow"],"family":["New World Sparrows and Allies"],"class":["903"],"trial_type":"image-multi-choice","trial_index":64,"time_elapsed":415606,"internal_node_id":"0.0-1.0-63.0"},{"rt":3625,"responses":"{\"Q0\":\"White-crowned Sparrow\"}","bird":["Black-and-white Warbler"],"family":["Wood-Warblers"],"class":["864"],"trial_type":"image-multi-choice","trial_index":65,"time_elapsed":420238,"internal_node_id":"0.0-1.0-64.0"},{"rt":4174,"responses":"{\"Q0\":\"Lark Sparrow\"}","bird":["Fox Sparrow"],"family":["New World Sparrows and Allies"],"class":["901"],"trial_type":"image-multi-choice","trial_index":66,"time_elapsed":425421,"internal_node_id":"0.0-1.0-65.0"},{"rt":4449,"responses":"{\"Q0\":\"Lark Sparrow\"}","bird":["Townsend's Warbler"],"family":["Wood-Warblers"],"class":["881"],"trial_type":"image-multi-choice","trial_index":67,"time_elapsed":430878,"internal_node_id":"0.0-1.0-66.0"},{"rt":3931,"responses":"{\"Q0\":\"Yellow Warbler\"}","bird":["Yellow Warbler"],"family":["Wood-Warblers"],"class":["875"],"trial_type":"image-multi-choice","trial_index":68,"time_elapsed":435816,"internal_node_id":"0.0-1.0-67.0"},{"rt":3501,"responses":"{\"Q0\":\"Lark Sparrow\"}","bird":["Tennessee Warbler"],"family":["Wood-Warblers"],"class":["866"],"trial_type":"image-multi-choice","trial_index":69,"time_elapsed":440324,"internal_node_id":"0.0-1.0-68.0"},{"rt":4371,"responses":"{\"Q0\":\"American Tree Sparrow\"}","bird":["Ovenbird"],"family":["Wood-Warblers"],"class":["860"],"trial_type":"image-multi-choice","trial_index":70,"time_elapsed":445702,"internal_node_id":"0.0-1.0-69.0"},{"rt":2953,"responses":"{\"Q0\":\"Nashville Warbler\"}","bird":["Townsend's Warbler"],"family":["Wood-Warblers"],"class":["881"],"trial_type":"image-multi-choice","trial_index":71,"time_elapsed":449661,"internal_node_id":"0.0-1.0-70.0"},{"rt":3932,"responses":"{\"Q0\":\"White-throated Sparrow\"}","bird":["Black-and-white Warbler"],"family":["Wood-Warblers"],"class":["864"],"trial_type":"image-multi-choice","trial_index":72,"time_elapsed":454601,"internal_node_id":"0.0-1.0-71.0"},{"rt":4753,"responses":"{\"Q0\":\"White-throated Sparrow\"}","bird":["Song Sparrow"],"family":["New World Sparrows and Allies"],"class":["902"],"trial_type":"image-multi-choice","trial_index":73,"time_elapsed":460361,"internal_node_id":"0.0-1.0-72.0"},{"rt":4445,"responses":"{\"Q0\":\"Nashville Warbler\"}","bird":["Northern Waterthrush"],"family":["Wood-Warblers"],"class":["862"],"trial_type":"image-multi-choice","trial_index":74,"time_elapsed":465812,"internal_node_id":"0.0-1.0-73.0"},{"rt":3158,"responses":"{\"Q0\":\"Magnolia Warbler\"}","bird":["Swamp Sparrow"],"family":["New World Sparrows and Allies"],"class":["904"],"trial_type":"image-multi-choice","trial_index":75,"time_elapsed":469978,"internal_node_id":"0.0-1.0-74.0"},{"rt":3643,"responses":"{\"Q0\":\"White-crowned Sparrow\"}","bird":["White-crowned Sparrow"],"family":["New World Sparrows and Allies"],"class":["766"],"trial_type":"image-multi-choice","trial_index":76,"time_elapsed":474628,"internal_node_id":"0.0-1.0-75.0"},{"rt":4785,"responses":"{\"Q0\":\"White-throated Sparrow\"}","bird":["White-throated Sparrow"],"family":["New World Sparrows and Allies"],"class":["764"],"trial_type":"image-multi-choice","trial_index":77,"time_elapsed":480421,"internal_node_id":"0.0-1.0-76.0"},{"rt":3462,"responses":"{\"Q0\":\"Black-and-white Warbler\"}","bird":["Townsend's Warbler"],"family":["Wood-Warblers"],"class":["881"],"trial_type":"image-multi-choice","trial_index":78,"time_elapsed":484891,"internal_node_id":"0.0-1.0-77.0"},{"rt":7454,"responses":"{\"Q0\":\"Song Sparrow\"}","bird":["Vesper Sparrow"],"family":["New World Sparrows and Allies"],"class":["898"],"trial_type":"image-multi-choice","trial_index":79,"time_elapsed":493351,"internal_node_id":"0.0-1.0-78.0"},{"rt":4334,"responses":"{\"Q0\":\"White-crowned Sparrow\"}","bird":["White-throated Sparrow"],"family":["New World Sparrows and Allies"],"class":["764"],"trial_type":"image-multi-choice","trial_index":80,"time_elapsed":498692,"internal_node_id":"0.0-1.0-79.0"},{"rt":3239,"responses":"{\"Q0\":\"Fox Sparrow\"}","bird":["Northern Waterthrush"],"family":["Wood-Warblers"],"class":["862"],"trial_type":"image-multi-choice","trial_index":81,"time_elapsed":502937,"internal_node_id":"0.0-1.0-80.0"},{"rt":3677,"responses":"{\"Q0\":\"Tennessee Warbler\"}","bird":["Yellow Warbler"],"family":["Wood-Warblers"],"class":["875"],"trial_type":"image-multi-choice","trial_index":82,"time_elapsed":507623,"internal_node_id":"0.0-1.0-81.0"},{"rt":8120,"responses":"{\"Q0\":\"Northern Waterthrush\"}","bird":["Nashville Warbler"],"family":["Wood-Warblers"],"class":["868"],"trial_type":"image-multi-choice","trial_index":83,"time_elapsed":516749,"internal_node_id":"0.0-1.0-82.0"},{"rt":4190,"responses":"{\"Q0\":\"White-crowned Sparrow\"}","bird":["Lark Sparrow"],"family":["New World Sparrows and Allies"],"class":["899"],"trial_type":"image-multi-choice","trial_index":84,"time_elapsed":521945,"internal_node_id":"0.0-1.0-83.0"},{"rt":3224,"responses":"{\"Q0\":\"Yellow Warbler\"}","bird":["Orange-crowned Warbler"],"family":["Wood-Warblers"],"class":["867"],"trial_type":"image-multi-choice","trial_index":85,"time_elapsed":526176,"internal_node_id":"0.0-1.0-84.0"},{"rt":3643,"responses":"{\"Q0\":\"Orange-crowned Warbler\"}","bird":["Nashville Warbler"],"family":["Wood-Warblers"],"class":["868"],"trial_type":"image-multi-choice","trial_index":86,"time_elapsed":530825,"internal_node_id":"0.0-1.0-85.0"},{"rt":4156,"responses":"{\"Q0\":\"White-throated Sparrow\"}","bird":["Black-and-white Warbler"],"family":["Wood-Warblers"],"class":["864"],"trial_type":"image-multi-choice","trial_index":87,"time_elapsed":535989,"internal_node_id":"0.0-1.0-86.0"},{"rt":5727,"responses":"{\"Q0\":\"Blackburnian Warbler\"}","bird":["Nashville Warbler"],"family":["Wood-Warblers"],"class":["868"],"trial_type":"image-multi-choice","trial_index":88,"time_elapsed":542722,"internal_node_id":"0.0-1.0-87.0"},{"rt":5774,"responses":"{\"Q0\":\"Blackburnian Warbler\"}","bird":["Ovenbird"],"family":["Wood-Warblers"],"class":["860"],"trial_type":"image-multi-choice","trial_index":89,"time_elapsed":549503,"internal_node_id":"0.0-1.0-88.0"},{"rt":4814,"responses":"{\"Q0\":\"Chipping Sparrow\"}","bird":["Black-and-white Warbler"],"family":["Wood-Warblers"],"class":["864"],"trial_type":"image-multi-choice","trial_index":90,"time_elapsed":555324,"internal_node_id":"0.0-1.0-89.0"},{"rt":4505,"responses":"{\"Q0\":\"Chipping Sparrow\"}","bird":["Chipping Sparrow"],"family":["New World Sparrows and Allies"],"class":["769"],"trial_type":"image-multi-choice","trial_index":91,"time_elapsed":560836,"internal_node_id":"0.0-1.0-90.0"},{"rt":6649,"responses":"{\"Q0\":\"Tennessee Warbler\"}","bird":["Tennessee Warbler"],"family":["Wood-Warblers"],"class":["866"],"trial_type":"image-multi-choice","trial_index":92,"time_elapsed":568490,"internal_node_id":"0.0-1.0-91.0"},{"rt":5332,"responses":"{\"Q0\":\"American Tree Sparrow\"}","bird":["White-throated Sparrow"],"family":["New World Sparrows and Allies"],"class":["764"],"trial_type":"image-multi-choice","trial_index":93,"time_elapsed":574831,"internal_node_id":"0.0-1.0-92.0"},{"rt":3821,"responses":"{\"Q0\":\"Magnolia Warbler\"}","bird":["Song Sparrow"],"family":["New World Sparrows and Allies"],"class":["902"],"trial_type":"image-multi-choice","trial_index":94,"time_elapsed":579661,"internal_node_id":"0.0-1.0-93.0"},{"rt":3212,"responses":"{\"Q0\":\"White-crowned Sparrow\"}","bird":["Blackburnian Warbler"],"family":["Wood-Warblers"],"class":["874"],"trial_type":"image-multi-choice","trial_index":95,"time_elapsed":583879,"internal_node_id":"0.0-1.0-94.0"},{"rt":5093,"responses":"{\"Q0\":\"Swamp Sparrow\"}","bird":["American Tree Sparrow"],"family":["New World Sparrows and Allies"],"class":["894"],"trial_type":"image-multi-choice","trial_index":96,"time_elapsed":589978,"internal_node_id":"0.0-1.0-95.0"},{"rt":4405,"responses":"{\"Q0\":\"White-throated Sparrow\"}","bird":["White-throated Sparrow"],"family":["New World Sparrows and Allies"],"class":["764"],"trial_type":"image-multi-choice","trial_index":97,"time_elapsed":595390,"internal_node_id":"0.0-1.0-96.0"},{"rt":6578,"responses":"{\"Q0\":\"Northern Waterthrush\"}","bird":["Orange-crowned Warbler"],"family":["Wood-Warblers"],"class":["867"],"trial_type":"image-multi-choice","trial_index":98,"time_elapsed":602975,"internal_node_id":"0.0-1.0-97.0"},{"rt":5353,"responses":"{\"Q0\":\"Orange-crowned Warbler\"}","bird":["Yellow Warbler"],"family":["Wood-Warblers"],"class":["875"],"trial_type":"image-multi-choice","trial_index":99,"time_elapsed":609336,"internal_node_id":"0.0-1.0-98.0"},{"rt":4929,"responses":"{\"Q0\":\"Magnolia Warbler\"}","bird":["Fox Sparrow"],"family":["New World Sparrows and Allies"],"class":["901"],"trial_type":"image-multi-choice","trial_index":100,"time_elapsed":615271,"internal_node_id":"0.0-1.0-99.0"},{"rt":6796,"responses":"{\"Q0\":\"Chipping Sparrow\"}","bird":["Chipping Sparrow"],"family":["New World Sparrows and Allies"],"class":["769"],"trial_type":"image-multi-choice","trial_index":101,"time_elapsed":623073,"internal_node_id":"0.0-1.0-100.0"},{"rt":8297,"responses":"{\"Q0\":\"American Tree Sparrow\"}","bird":["Northern Waterthrush"],"family":["Wood-Warblers"],"class":["862"],"trial_type":"image-multi-choice","trial_index":102,"time_elapsed":632379,"internal_node_id":"0.0-1.0-101.0"},{"rt":3455,"responses":"{\"Q0\":\"Song Sparrow\"}","bird":["Swamp Sparrow"],"family":["New World Sparrows and Allies"],"class":["904"],"trial_type":"image-multi-choice","trial_index":103,"time_elapsed":636842,"internal_node_id":"0.0-1.0-102.0"},{"rt":2943,"responses":"{\"Q0\":\"Swamp Sparrow\"}","bird":["Northern Waterthrush"],"family":["Wood-Warblers"],"class":["862"],"trial_type":"image-multi-choice","trial_index":104,"time_elapsed":640792,"internal_node_id":"0.0-1.0-103.0"},{"rt":3608,"responses":"{\"Q0\":\"Yellow Warbler\"}","bird":["Yellow Warbler"],"family":["Wood-Warblers"],"class":["875"],"trial_type":"image-multi-choice","trial_index":105,"time_elapsed":645406,"internal_node_id":"0.0-1.0-104.0"},{"rt":4533,"responses":"{\"Q0\":\"Vesper Sparrow\"}","bird":["Magnolia Warbler"],"family":["Wood-Warblers"],"class":["758"],"trial_type":"image-multi-choice","trial_index":106,"time_elapsed":650946,"internal_node_id":"0.0-1.0-105.0"},{"rt":5172,"responses":"{\"Q0\":\"Townsend's Warbler\"}","bird":["Townsend's Warbler"],"family":["Wood-Warblers"],"class":["881"],"trial_type":"image-multi-choice","trial_index":107,"time_elapsed":657125,"internal_node_id":"0.0-1.0-106.0"},{"rt":3282,"responses":"{\"Q0\":\"Fox Sparrow\"}","bird":["Swamp Sparrow"],"family":["New World Sparrows and Allies"],"class":["904"],"trial_type":"image-multi-choice","trial_index":108,"time_elapsed":661414,"internal_node_id":"0.0-1.0-107.0"},{"rt":5672,"responses":"{\"Q0\":\"Nashville Warbler\"}","bird":["Fox Sparrow"],"family":["New World Sparrows and Allies"],"class":["901"],"trial_type":"image-multi-choice","trial_index":109,"time_elapsed":668093,"internal_node_id":"0.0-1.0-108.0"},{"rt":3389,"responses":"{\"Q0\":\"Yellow Warbler\"}","bird":["Yellow Warbler"],"family":["Wood-Warblers"],"class":["875"],"trial_type":"image-multi-choice","trial_index":110,"time_elapsed":672490,"internal_node_id":"0.0-1.0-109.0"},{"rt":3535,"responses":"{\"Q0\":\"Yellow Warbler\"}","bird":["Lincoln's Sparrow"],"family":["New World Sparrows and Allies"],"class":["903"],"trial_type":"image-multi-choice","trial_index":111,"time_elapsed":677031,"internal_node_id":"0.0-1.0-110.0"},{"rt":4922,"responses":"{\"Q0\":\"Chipping Sparrow\"}","bird":["Townsend's Warbler"],"family":["Wood-Warblers"],"class":["881"],"trial_type":"image-multi-choice","trial_index":112,"time_elapsed":682961,"internal_node_id":"0.0-1.0-111.0"},{"rt":4197,"responses":"{\"Q0\":\"White-crowned Sparrow\"}","bird":["White-crowned Sparrow"],"family":["New World Sparrows and Allies"],"class":["766"],"trial_type":"image-multi-choice","trial_index":113,"time_elapsed":688164,"internal_node_id":"0.0-1.0-112.0"},{"rt":3587,"responses":"{\"Q0\":\"White-throated Sparrow\"}","bird":["Blackburnian Warbler"],"family":["Wood-Warblers"],"class":["874"],"trial_type":"image-multi-choice","trial_index":114,"time_elapsed":692757,"internal_node_id":"0.0-1.0-113.0"},{"rt":4936,"responses":"{\"Q0\":\"Nashville Warbler\"}","bird":["Nashville Warbler"],"family":["Wood-Warblers"],"class":["868"],"trial_type":"image-multi-choice","trial_index":115,"time_elapsed":698699,"internal_node_id":"0.0-1.0-114.0"},{"rt":3086,"responses":"{\"Q0\":\"Yellow Warbler\"}","bird":["Tennessee Warbler"],"family":["Wood-Warblers"],"class":["866"],"trial_type":"image-multi-choice","trial_index":116,"time_elapsed":702792,"internal_node_id":"0.0-1.0-115.0"},{"rt":4485,"responses":"{\"Q0\":\"Chipping Sparrow\"}","bird":["Vesper Sparrow"],"family":["New World Sparrows and Allies"],"class":["898"],"trial_type":"image-multi-choice","trial_index":117,"time_elapsed":708284,"internal_node_id":"0.0-1.0-116.0"},{"rt":3391,"responses":"{\"Q0\":\"Fox Sparrow\"}","bird":["Swamp Sparrow"],"family":["New World Sparrows and Allies"],"class":["904"],"trial_type":"image-multi-choice","trial_index":118,"time_elapsed":712681,"internal_node_id":"0.0-1.0-117.0"},{"rt":3335,"responses":"{\"Q0\":\"White-crowned Sparrow\"}","bird":["White-crowned Sparrow"],"family":["New World Sparrows and Allies"],"class":["766"],"trial_type":"image-multi-choice","trial_index":119,"time_elapsed":717023,"internal_node_id":"0.0-1.0-118.0"},{"rt":3684,"responses":"{\"Q0\":\"White-crowned Sparrow\"}","bird":["Blackburnian Warbler"],"family":["Wood-Warblers"],"class":["874"],"trial_type":"image-multi-choice","trial_index":120,"time_elapsed":734191,"internal_node_id":"0.0-1.0-119.0"},{"rt":5978,"responses":"{\"Q0\":\"Lincoln's Sparrow\"}","bird":["Fox Sparrow"],"family":["New World Sparrows and Allies"],"class":["901"],"trial_type":"image-multi-choice","trial_index":121,"time_elapsed":741178,"internal_node_id":"0.0-1.0-120.0"},{"rt":3919,"responses":"{\"Q0\":\"Chipping Sparrow\"}","bird":["Vesper Sparrow"],"family":["New World Sparrows and Allies"],"class":["898"],"trial_type":"image-multi-choice","trial_index":122,"time_elapsed":746104,"internal_node_id":"0.0-1.0-121.0"},{"rt":2446,"responses":"{\"Q0\":\"Yellow Warbler\"}","bird":["Yellow Warbler"],"family":["Wood-Warblers"],"class":["875"],"trial_type":"image-multi-choice","trial_index":123,"time_elapsed":749558,"internal_node_id":"0.0-1.0-122.0"},{"rt":4573,"responses":"{\"Q0\":\"Chipping Sparrow\"}","bird":["Song Sparrow"],"family":["New World Sparrows and Allies"],"class":["902"],"trial_type":"image-multi-choice","trial_index":124,"time_elapsed":755137,"internal_node_id":"0.0-1.0-123.0"},{"rt":3388,"responses":"{\"Q0\":\"American Tree Sparrow\"}","bird":["Townsend's Warbler"],"family":["Wood-Warblers"],"class":["881"],"trial_type":"image-multi-choice","trial_index":125,"time_elapsed":759534,"internal_node_id":"0.0-1.0-124.0"},{"rt":4663,"responses":"{\"Q0\":\"White-crowned Sparrow\"}","bird":["White-crowned Sparrow"],"family":["New World Sparrows and Allies"],"class":["766"],"trial_type":"image-multi-choice","trial_index":126,"time_elapsed":765203,"internal_node_id":"0.0-1.0-125.0"},{"rt":4229,"responses":"{\"Q0\":\"White-throated Sparrow\"}","bird":["Song Sparrow"],"family":["New World Sparrows and Allies"],"class":["902"],"trial_type":"image-multi-choice","trial_index":127,"time_elapsed":770437,"internal_node_id":"0.0-1.0-126.0"},{"rt":5859,"responses":"{\"Q0\":\"Lark Sparrow\"}","bird":["Ovenbird"],"family":["Wood-Warblers"],"class":["860"],"trial_type":"image-multi-choice","trial_index":128,"time_elapsed":777303,"internal_node_id":"0.0-1.0-127.0"},{"rt":3478,"responses":"{\"Q0\":\"Lark Sparrow\"}","bird":["Magnolia Warbler"],"family":["Wood-Warblers"],"class":["758"],"trial_type":"image-multi-choice","trial_index":129,"time_elapsed":781788,"internal_node_id":"0.0-1.0-128.0"},{"rt":3722,"responses":"{\"Q0\":\"Lark Sparrow\"}","bird":["Swamp Sparrow"],"family":["New World Sparrows and Allies"],"class":["904"],"trial_type":"image-multi-choice","trial_index":130,"time_elapsed":786518,"internal_node_id":"0.0-1.0-129.0"},{"rt":3318,"responses":"{\"Q0\":\"White-crowned Sparrow\"}","bird":["Lark Sparrow"],"family":["New World Sparrows and Allies"],"class":["899"],"trial_type":"image-multi-choice","trial_index":131,"time_elapsed":790844,"internal_node_id":"0.0-1.0-130.0"},{"rt":4482,"responses":"{\"Q0\":\"Tennessee Warbler\"}","bird":["Magnolia Warbler"],"family":["Wood-Warblers"],"class":["758"],"trial_type":"image-multi-choice","trial_index":132,"time_elapsed":796334,"internal_node_id":"0.0-1.0-131.0"},{"rt":9153,"responses":"{\"Q0\":\"American Tree Sparrow\"}","bird":["White-throated Sparrow"],"family":["New World Sparrows and Allies"],"class":["764"],"trial_type":"image-multi-choice","trial_index":133,"time_elapsed":806493,"internal_node_id":"0.0-1.0-132.0"},{"rt":4384,"responses":"{\"Q0\":\"White-throated Sparrow\"}","bird":["Magnolia Warbler"],"family":["Wood-Warblers"],"class":["758"],"trial_type":"image-multi-choice","trial_index":134,"time_elapsed":811884,"internal_node_id":"0.0-1.0-133.0"},{"rt":3058,"responses":"{\"Q0\":\"Yellow Warbler\"}","bird":["Yellow Warbler"],"family":["Wood-Warblers"],"class":["875"],"trial_type":"image-multi-choice","trial_index":135,"time_elapsed":815948,"internal_node_id":"0.0-1.0-134.0"},{"rt":3026,"responses":"{\"Q0\":\"Yellow Warbler\"}","bird":["Tennessee Warbler"],"family":["Wood-Warblers"],"class":["866"],"trial_type":"image-multi-choice","trial_index":136,"time_elapsed":819980,"internal_node_id":"0.0-1.0-135.0"},{"rt":4575,"responses":"{\"Q0\":\"Fox Sparrow\"}","bird":["Ovenbird"],"family":["Wood-Warblers"],"class":["860"],"trial_type":"image-multi-choice","trial_index":137,"time_elapsed":825562,"internal_node_id":"0.0-1.0-136.0"},{"rt":5422,"responses":"{\"Q0\":\"American Tree Sparrow\"}","bird":["Black-and-white Warbler"],"family":["Wood-Warblers"],"class":["864"],"trial_type":"image-multi-choice","trial_index":138,"time_elapsed":831991,"internal_node_id":"0.0-1.0-137.0"},{"rt":3891,"responses":"{\"Q0\":\"Ovenbird\"}","bird":["Chipping Sparrow"],"family":["New World Sparrows and Allies"],"class":["769"],"trial_type":"image-multi-choice","trial_index":139,"time_elapsed":836891,"internal_node_id":"0.0-1.0-138.0"},{"rt":6907,"responses":"{\"Q0\":\"White-crowned Sparrow\"}","bird":["Northern Waterthrush"],"family":["Wood-Warblers"],"class":["862"],"trial_type":"image-multi-choice","trial_index":140,"time_elapsed":844806,"internal_node_id":"0.0-1.0-139.0"},{"rt":7034,"responses":"{\"Q0\":\"Chipping Sparrow\"}","bird":["Vesper Sparrow"],"family":["New World Sparrows and Allies"],"class":["898"],"trial_type":"image-multi-choice","trial_index":141,"time_elapsed":852847,"internal_node_id":"0.0-1.0-140.0"},{"rt":4563,"responses":"{\"Q0\":\"White-throated Sparrow\"}","bird":["White-throated Sparrow"],"family":["New World Sparrows and Allies"],"class":["764"],"trial_type":"image-multi-choice","trial_index":142,"time_elapsed":858418,"internal_node_id":"0.0-1.0-141.0"},{"rt":3433,"responses":"{\"Q0\":\"White-throated Sparrow\"}","bird":["Magnolia Warbler"],"family":["Wood-Warblers"],"class":["758"],"trial_type":"image-multi-choice","trial_index":143,"time_elapsed":862858,"internal_node_id":"0.0-1.0-142.0"},{"rt":3379,"responses":"{\"Q0\":\"White-throated Sparrow\"}","bird":["Blackburnian Warbler"],"family":["Wood-Warblers"],"class":["874"],"trial_type":"image-multi-choice","trial_index":144,"time_elapsed":867244,"internal_node_id":"0.0-1.0-143.0"},{"rt":4526,"responses":"{\"Q0\":\"Black-and-white Warbler\"}","bird":["Lark Sparrow"],"family":["New World Sparrows and Allies"],"class":["899"],"trial_type":"image-multi-choice","trial_index":145,"time_elapsed":872776,"internal_node_id":"0.0-1.0-144.0"},{"rt":3334,"responses":"{\"Q0\":\"Blackburnian Warbler\"}","bird":["Song Sparrow"],"family":["New World Sparrows and Allies"],"class":["902"],"trial_type":"image-multi-choice","trial_index":146,"time_elapsed":877117,"internal_node_id":"0.0-1.0-145.0"},{"rt":3726,"responses":"{\"Q0\":\"White-crowned Sparrow\"}","bird":["White-crowned Sparrow"],"family":["New World Sparrows and Allies"],"class":["766"],"trial_type":"image-multi-choice","trial_index":147,"time_elapsed":881849,"internal_node_id":"0.0-1.0-146.0"},{"rt":5246,"responses":"{\"Q0\":\"Nashville Warbler\"}","bird":["Chipping Sparrow"],"family":["New World Sparrows and Allies"],"class":["769"],"trial_type":"image-multi-choice","trial_index":148,"time_elapsed":888101,"internal_node_id":"0.0-1.0-147.0"},{"rt":2980,"responses":"{\"Q0\":\"Nashville Warbler\"}","bird":["Swamp Sparrow"],"family":["New World Sparrows and Allies"],"class":["904"],"trial_type":"image-multi-choice","trial_index":149,"time_elapsed":892088,"internal_node_id":"0.0-1.0-148.0"},{"rt":3656,"responses":"{\"Q0\":\"Nashville Warbler\"}","bird":["Fox Sparrow"],"family":["New World Sparrows and Allies"],"class":["901"],"trial_type":"image-multi-choice","trial_index":150,"time_elapsed":896750,"internal_node_id":"0.0-1.0-149.0"},{"rt":3738,"responses":"{\"Q0\":\"Yellow Warbler\"}","bird":["Yellow Warbler"],"family":["Wood-Warblers"],"class":["875"],"trial_type":"image-multi-choice","trial_index":151,"time_elapsed":901496,"internal_node_id":"0.0-1.0-150.0"},{"rt":4824,"responses":"{\"Q0\":\"White-crowned Sparrow\"}","bird":["White-crowned Sparrow"],"family":["New World Sparrows and Allies"],"class":["766"],"trial_type":"image-multi-choice","trial_index":152,"time_elapsed":907328,"internal_node_id":"0.0-1.0-151.0"},{"rt":3879,"responses":"{\"Q0\":\"Blackburnian Warbler\"}","bird":["Song Sparrow"],"family":["New World Sparrows and Allies"],"class":["902"],"trial_type":"image-multi-choice","trial_index":153,"time_elapsed":912214,"internal_node_id":"0.0-1.0-152.0"},{"rt":4944,"responses":"{\"Q0\":\"Northern Waterthrush\"}","bird":["Northern Waterthrush"],"family":["Wood-Warblers"],"class":["862"],"trial_type":"image-multi-choice","trial_index":154,"time_elapsed":918165,"internal_node_id":"0.0-1.0-153.0"},{"rt":3679,"responses":"{\"Q0\":\"White-crowned Sparrow\"}","bird":["White-crowned Sparrow"],"family":["New World Sparrows and Allies"],"class":["766"],"trial_type":"image-multi-choice","trial_index":155,"time_elapsed":922850,"internal_node_id":"0.0-1.0-154.0"},{"rt":3430,"responses":"{\"Q0\":\"Yellow Warbler\"}","bird":["Yellow Warbler"],"family":["Wood-Warblers"],"class":["875"],"trial_type":"image-multi-choice","trial_index":156,"time_elapsed":927286,"internal_node_id":"0.0-1.0-155.0"},{"rt":4716,"responses":"{\"Q0\":\"White-throated Sparrow\"}","bird":["White-throated Sparrow"],"family":["New World Sparrows and Allies"],"class":["764"],"trial_type":"image-multi-choice","trial_index":157,"time_elapsed":933009,"internal_node_id":"0.0-1.0-156.0"},{"rt":3106,"responses":"{\"Q0\":\"White-crowned Sparrow\"}","bird":["White-crowned Sparrow"],"family":["New World Sparrows and Allies"],"class":["766"],"trial_type":"image-multi-choice","trial_index":158,"time_elapsed":937123,"internal_node_id":"0.0-1.0-157.0"},{"rt":5091,"responses":"{\"Q0\":\"Fox Sparrow\"}","bird":["Townsend's Warbler"],"family":["Wood-Warblers"],"class":["881"],"trial_type":"image-multi-choice","trial_index":159,"time_elapsed":943221,"internal_node_id":"0.0-1.0-158.0"},{"rt":3451,"responses":"{\"Q0\":\"Yellow Warbler\"}","bird":["Tennessee Warbler"],"family":["Wood-Warblers"],"class":["866"],"trial_type":"image-multi-choice","trial_index":160,"time_elapsed":947678,"internal_node_id":"0.0-1.0-159.0"},{"rt":3752,"responses":"{\"Q0\":\"White-throated Sparrow\"}","bird":["White-throated Sparrow"],"family":["New World Sparrows and Allies"],"class":["764"],"trial_type":"image-multi-choice","trial_index":161,"time_elapsed":952438,"internal_node_id":"0.0-1.0-160.0"},{"rt":5919,"responses":"{\"Q0\":\"Magnolia Warbler\"}","bird":["Fox Sparrow"],"family":["New World Sparrows and Allies"],"class":["901"],"trial_type":"image-multi-choice","trial_index":162,"time_elapsed":959364,"internal_node_id":"0.0-1.0-161.0"},{"rt":3118,"responses":"{\"Q0\":\"Fox Sparrow\"}","bird":["Song Sparrow"],"family":["New World Sparrows and Allies"],"class":["902"],"trial_type":"image-multi-choice","trial_index":163,"time_elapsed":963491,"internal_node_id":"0.0-1.0-162.0"},{"rt":3287,"responses":"{\"Q0\":\"White-crowned Sparrow\"}","bird":["White-crowned Sparrow"],"family":["New World Sparrows and Allies"],"class":["766"],"trial_type":"image-multi-choice","trial_index":164,"time_elapsed":967784,"internal_node_id":"0.0-1.0-163.0"},{"rt":4074,"responses":"{\"Q0\":\"American Tree Sparrow\"}","bird":["Song Sparrow"],"family":["New World Sparrows and Allies"],"class":["902"],"trial_type":"image-multi-choice","trial_index":165,"time_elapsed":972865,"internal_node_id":"0.0-1.0-164.0"},{"rt":4142,"responses":"{\"Q0\":\"American Tree Sparrow\"}","bird":["American Tree Sparrow"],"family":["New World Sparrows and Allies"],"class":["894"],"trial_type":"image-multi-choice","trial_index":166,"time_elapsed":978015,"internal_node_id":"0.0-1.0-165.0"},{"rt":5233,"responses":"{\"Q0\":\"Magnolia Warbler\"}","bird":["Orange-crowned Warbler"],"family":["Wood-Warblers"],"class":["867"],"trial_type":"image-multi-choice","trial_index":167,"time_elapsed":984254,"internal_node_id":"0.0-1.0-166.0"},{"rt":3994,"responses":"{\"Q0\":\"Ovenbird\"}","bird":["Lincoln's Sparrow"],"family":["New World Sparrows and Allies"],"class":["903"],"trial_type":"image-multi-choice","trial_index":168,"time_elapsed":989256,"internal_node_id":"0.0-1.0-167.0"},{"rt":5087,"responses":"{\"Q0\":\"White-throated Sparrow\"}","bird":["Blackburnian Warbler"],"family":["Wood-Warblers"],"class":["874"],"trial_type":"image-multi-choice","trial_index":169,"time_elapsed":995350,"internal_node_id":"0.0-1.0-168.0"},{"rt":4827,"responses":"{\"Q0\":\"White-throated Sparrow\"}","bird":["White-throated Sparrow"],"family":["New World Sparrows and Allies"],"class":["764"],"trial_type":"image-multi-choice","trial_index":170,"time_elapsed":1001185,"internal_node_id":"0.0-1.0-169.0"},{"rt":3656,"responses":"{\"Q0\":\"Orange-crowned Warbler\"}","bird":["Fox Sparrow"],"family":["New World Sparrows and Allies"],"class":["901"],"trial_type":"image-multi-choice","trial_index":171,"time_elapsed":1005847,"internal_node_id":"0.0-1.0-170.0"},{"rt":3866,"responses":"{\"Q0\":\"Chipping Sparrow\"}","bird":["Chipping Sparrow"],"family":["New World Sparrows and Allies"],"class":["769"],"trial_type":"image-multi-choice","trial_index":172,"time_elapsed":1010719,"internal_node_id":"0.0-1.0-171.0"},{"rt":6419,"responses":"{\"Q0\":\"Nashville Warbler\"}","bird":["Swamp Sparrow"],"family":["New World Sparrows and Allies"],"class":["904"],"trial_type":"image-multi-choice","trial_index":173,"time_elapsed":1018144,"internal_node_id":"0.0-1.0-172.0"},{"rt":3648,"responses":"{\"Q0\":\"Lincoln's Sparrow\"}","bird":["Lincoln's Sparrow"],"family":["New World Sparrows and Allies"],"class":["903"],"trial_type":"image-multi-choice","trial_index":174,"time_elapsed":1022799,"internal_node_id":"0.0-1.0-173.0"},{"rt":5222,"responses":"{\"Q0\":\"American Tree Sparrow\"}","bird":["Swamp Sparrow"],"family":["New World Sparrows and Allies"],"class":["904"],"trial_type":"image-multi-choice","trial_index":175,"time_elapsed":1029028,"internal_node_id":"0.0-1.0-174.0"},{"rt":5696,"responses":"{\"Q0\":\"White-throated Sparrow\"}","bird":["Townsend's Warbler"],"family":["Wood-Warblers"],"class":["881"],"trial_type":"image-multi-choice","trial_index":176,"time_elapsed":1035732,"internal_node_id":"0.0-1.0-175.0"},{"rt":4712,"responses":"{\"Q0\":\"Tennessee Warbler\"}","bird":["American Tree Sparrow"],"family":["New World Sparrows and Allies"],"class":["894"],"trial_type":"image-multi-choice","trial_index":177,"time_elapsed":1041451,"internal_node_id":"0.0-1.0-176.0"},{"rt":5459,"responses":"{\"Q0\":\"Northern Waterthrush\"}","bird":["Fox Sparrow"],"family":["New World Sparrows and Allies"],"class":["901"],"trial_type":"image-multi-choice","trial_index":178,"time_elapsed":1047917,"internal_node_id":"0.0-1.0-177.0"},{"rt":5063,"responses":"{\"Q0\":\"Northern Waterthrush\"}","bird":["Lincoln's Sparrow"],"family":["New World Sparrows and Allies"],"class":["903"],"trial_type":"image-multi-choice","trial_index":179,"time_elapsed":1053986,"internal_node_id":"0.0-1.0-178.0"},{"rt":3870,"responses":"{\"Q0\":\"White-throated Sparrow\"}","bird":["Magnolia Warbler"],"family":["Wood-Warblers"],"class":["758"],"trial_type":"image-multi-choice","trial_index":180,"time_elapsed":1069323,"internal_node_id":"0.0-1.0-179.0"},{"rt":3929,"responses":"{\"Q0\":\"Yellow Warbler\"}","bird":["Orange-crowned Warbler"],"family":["Wood-Warblers"],"class":["867"],"trial_type":"image-multi-choice","trial_index":181,"time_elapsed":1074258,"internal_node_id":"0.0-1.0-180.0"},{"rt":3995,"responses":"{\"Q0\":\"Yellow Warbler\"}","bird":["Tennessee Warbler"],"family":["Wood-Warblers"],"class":["866"],"trial_type":"image-multi-choice","trial_index":182,"time_elapsed":1079259,"internal_node_id":"0.0-1.0-181.0"},{"rt":3487,"responses":"{\"Q0\":\"Ovenbird\"}","bird":["Vesper Sparrow"],"family":["New World Sparrows and Allies"],"class":["898"],"trial_type":"image-multi-choice","trial_index":183,"time_elapsed":1083753,"internal_node_id":"0.0-1.0-182.0"},{"rt":3293,"responses":"{\"Q0\":\"White-throated Sparrow\"}","bird":["Blackburnian Warbler"],"family":["Wood-Warblers"],"class":["874"],"trial_type":"image-multi-choice","trial_index":184,"time_elapsed":1088053,"internal_node_id":"0.0-1.0-183.0"},{"rt":2655,"responses":"{\"Q0\":\"Yellow Warbler\"}","bird":["Lincoln's Sparrow"],"family":["New World Sparrows and Allies"],"class":["903"],"trial_type":"image-multi-choice","trial_index":185,"time_elapsed":1091717,"internal_node_id":"0.0-1.0-184.0"},{"rt":4725,"responses":"{\"Q0\":\"White-crowned Sparrow\"}","bird":["Townsend's Warbler"],"family":["Wood-Warblers"],"class":["881"],"trial_type":"image-multi-choice","trial_index":186,"time_elapsed":1097450,"internal_node_id":"0.0-1.0-185.0"},{"rt":4776,"responses":"{\"Q0\":\"Magnolia Warbler\"}","bird":["Ovenbird"],"family":["Wood-Warblers"],"class":["860"],"trial_type":"image-multi-choice","trial_index":187,"time_elapsed":1103233,"internal_node_id":"0.0-1.0-186.0"},{"rt":3469,"responses":"{\"Q0\":\"Tennessee Warbler\"}","bird":["Orange-crowned Warbler"],"family":["Wood-Warblers"],"class":["867"],"trial_type":"image-multi-choice","trial_index":188,"time_elapsed":1107709,"internal_node_id":"0.0-1.0-187.0"},{"rt":5379,"responses":"{\"Q0\":\"American Tree Sparrow\"}","bird":["Chipping Sparrow"],"family":["New World Sparrows and Allies"],"class":["769"],"trial_type":"image-multi-choice","trial_index":189,"time_elapsed":1114096,"internal_node_id":"0.0-1.0-188.0"},{"rt":4790,"responses":"{\"Q0\":\"American Tree Sparrow\"}","bird":["American Tree Sparrow"],"family":["New World Sparrows and Allies"],"class":["894"],"trial_type":"image-multi-choice","trial_index":190,"time_elapsed":1119893,"internal_node_id":"0.0-1.0-189.0"},{"rt":4321,"responses":"{\"Q0\":\"Blackburnian Warbler\"}","bird":["Vesper Sparrow"],"family":["New World Sparrows and Allies"],"class":["898"],"trial_type":"image-multi-choice","trial_index":191,"time_elapsed":1125225,"internal_node_id":"0.0-1.0-190.0"},{"rt":4908,"responses":"{\"Q0\":\"Chipping Sparrow\"}","bird":["Lincoln's Sparrow"],"family":["New World Sparrows and Allies"],"class":["903"],"trial_type":"image-multi-choice","trial_index":192,"time_elapsed":1131141,"internal_node_id":"0.0-1.0-191.0"},{"rt":6113,"responses":"{\"Q0\":\"Northern Waterthrush\"}","bird":["Tennessee Warbler"],"family":["Wood-Warblers"],"class":["866"],"trial_type":"image-multi-choice","trial_index":193,"time_elapsed":1138260,"internal_node_id":"0.0-1.0-192.0"},{"rt":4523,"responses":"{\"Q0\":\"Magnolia Warbler\"}","bird":["American Tree Sparrow"],"family":["New World Sparrows and Allies"],"class":["894"],"trial_type":"image-multi-choice","trial_index":194,"time_elapsed":1143790,"internal_node_id":"0.0-1.0-193.0"},{"rt":2903,"responses":"{\"Q0\":\"White-throated Sparrow\"}","bird":["Lark Sparrow"],"family":["New World Sparrows and Allies"],"class":["899"],"trial_type":"image-multi-choice","trial_index":195,"time_elapsed":1147700,"internal_node_id":"0.0-1.0-194.0"},{"rt":4668,"responses":"{\"Q0\":\"Tennessee Warbler\"}","bird":["Tennessee Warbler"],"family":["Wood-Warblers"],"class":["866"],"trial_type":"image-multi-choice","trial_index":196,"time_elapsed":1153375,"internal_node_id":"0.0-1.0-195.0"},{"rt":4897,"responses":"{\"Q0\":\"Northern Waterthrush\"}","bird":["Northern Waterthrush"],"family":["Wood-Warblers"],"class":["862"],"trial_type":"image-multi-choice","trial_index":197,"time_elapsed":1159280,"internal_node_id":"0.0-1.0-196.0"},{"rt":3455,"responses":"{\"Q0\":\"White-throated Sparrow\"}","bird":["White-throated Sparrow"],"family":["New World Sparrows and Allies"],"class":["764"],"trial_type":"image-multi-choice","trial_index":198,"time_elapsed":1163742,"internal_node_id":"0.0-1.0-197.0"},{"rt":4699,"responses":"{\"Q0\":\"Yellow Warbler\"}","bird":["Yellow Warbler"],"family":["Wood-Warblers"],"class":["875"],"trial_type":"image-multi-choice","trial_index":199,"time_elapsed":1169448,"internal_node_id":"0.0-1.0-198.0"},{"rt":3542,"responses":"{\"Q0\":\"White-crowned Sparrow\"}","bird":["White-crowned Sparrow"],"family":["New World Sparrows and Allies"],"class":["766"],"trial_type":"image-multi-choice","trial_index":200,"time_elapsed":1173997,"internal_node_id":"0.0-1.0-199.0"},{"rt":4799,"responses":"{\"Q0\":\"Magnolia Warbler\"}","bird":["American Tree Sparrow"],"family":["New World Sparrows and Allies"],"class":["894"],"trial_type":"image-multi-choice","trial_index":201,"time_elapsed":1179802,"internal_node_id":"0.0-1.0-200.0"},{"rt":4614,"responses":"{\"Q0\":\"Tennessee Warbler\"}","bird":["Ovenbird"],"family":["Wood-Warblers"],"class":["860"],"trial_type":"image-multi-choice","trial_index":202,"time_elapsed":1185422,"internal_node_id":"0.0-1.0-201.0"},{"rt":3098,"responses":"{\"Q0\":\"White-throated Sparrow\"}","bird":["Magnolia Warbler"],"family":["Wood-Warblers"],"class":["758"],"trial_type":"image-multi-choice","trial_index":203,"time_elapsed":1189526,"internal_node_id":"0.0-1.0-202.0"},{"rt":4160,"responses":"{\"Q0\":\"American Tree Sparrow\"}","bird":["Black-and-white Warbler"],"family":["Wood-Warblers"],"class":["864"],"trial_type":"image-multi-choice","trial_index":204,"time_elapsed":1194694,"internal_node_id":"0.0-1.0-203.0"},{"rt":5869,"responses":"{\"Q0\":\"Northern Waterthrush\"}","bird":["Northern Waterthrush"],"family":["Wood-Warblers"],"class":["862"],"trial_type":"image-multi-choice","trial_index":205,"time_elapsed":1201569,"internal_node_id":"0.0-1.0-204.0"},{"rt":3985,"responses":"{\"Q0\":\"Ovenbird\"}","bird":["American Tree Sparrow"],"family":["New World Sparrows and Allies"],"class":["894"],"trial_type":"image-multi-choice","trial_index":206,"time_elapsed":1206562,"internal_node_id":"0.0-1.0-205.0"},{"rt":3621,"responses":"{\"Q0\":\"White-throated Sparrow\"}","bird":["Magnolia Warbler"],"family":["Wood-Warblers"],"class":["758"],"trial_type":"image-multi-choice","trial_index":207,"time_elapsed":1211190,"internal_node_id":"0.0-1.0-206.0"},{"rt":3575,"responses":"{\"Q0\":\"Swamp Sparrow\"}","bird":["Blackburnian Warbler"],"family":["Wood-Warblers"],"class":["874"],"trial_type":"image-multi-choice","trial_index":208,"time_elapsed":1215771,"internal_node_id":"0.0-1.0-207.0"},{"rt":2835,"responses":"{\"Q0\":\"Song Sparrow\"}","bird":["Swamp Sparrow"],"family":["New World Sparrows and Allies"],"class":["904"],"trial_type":"image-multi-choice","trial_index":209,"time_elapsed":1219614,"internal_node_id":"0.0-1.0-208.0"},{"rt":2757,"responses":"{\"Q0\":\"Fox Sparrow\"}","bird":["American Tree Sparrow"],"family":["New World Sparrows and Allies"],"class":["894"],"trial_type":"image-multi-choice","trial_index":210,"time_elapsed":1223378,"internal_node_id":"0.0-1.0-209.0"},{"rt":3508,"responses":"{\"Q0\":\"Fox Sparrow\"}","bird":["Ovenbird"],"family":["Wood-Warblers"],"class":["860"],"trial_type":"image-multi-choice","trial_index":211,"time_elapsed":1227893,"internal_node_id":"0.0-1.0-210.0"},{"rt":3400,"responses":"{\"Q0\":\"Chipping Sparrow\"}","bird":["Swamp Sparrow"],"family":["New World Sparrows and Allies"],"class":["904"],"trial_type":"image-multi-choice","trial_index":212,"time_elapsed":1232301,"internal_node_id":"0.0-1.0-211.0"},{"rt":2891,"responses":"{\"Q0\":\"Lincoln's Sparrow\"}","bird":["Song Sparrow"],"family":["New World Sparrows and Allies"],"class":["902"],"trial_type":"image-multi-choice","trial_index":213,"time_elapsed":1236199,"internal_node_id":"0.0-1.0-212.0"},{"rt":3958,"responses":"{\"Q0\":\"Black-and-white Warbler\"}","bird":["Blackburnian Warbler"],"family":["Wood-Warblers"],"class":["874"],"trial_type":"image-multi-choice","trial_index":214,"time_elapsed":1241165,"internal_node_id":"0.0-1.0-213.0"},{"rt":7327,"responses":"{\"Q0\":\"Song Sparrow\"}","bird":["Vesper Sparrow"],"family":["New World Sparrows and Allies"],"class":["898"],"trial_type":"image-multi-choice","trial_index":215,"time_elapsed":1249499,"internal_node_id":"0.0-1.0-214.0"},{"rt":4083,"responses":"{\"Q0\":\"White-throated Sparrow\"}","bird":["Blackburnian Warbler"],"family":["Wood-Warblers"],"class":["874"],"trial_type":"image-multi-choice","trial_index":216,"time_elapsed":1254589,"internal_node_id":"0.0-1.0-215.0"},{"rt":4118,"responses":"{\"Q0\":\"Song Sparrow\"}","bird":["Song Sparrow"],"family":["New World Sparrows and Allies"],"class":["902"],"trial_type":"image-multi-choice","trial_index":217,"time_elapsed":1259713,"internal_node_id":"0.0-1.0-216.0"},{"rt":4967,"responses":"{\"Q0\":\"Ovenbird\"}","bird":["Tennessee Warbler"],"family":["Wood-Warblers"],"class":["866"],"trial_type":"image-multi-choice","trial_index":218,"time_elapsed":1265687,"internal_node_id":"0.0-1.0-217.0"},{"rt":3684,"responses":"{\"Q0\":\"White-crowned Sparrow\"}","bird":["Black-and-white Warbler"],"family":["Wood-Warblers"],"class":["864"],"trial_type":"image-multi-choice","trial_index":219,"time_elapsed":1270377,"internal_node_id":"0.0-1.0-218.0"},{"rt":4406,"responses":"{\"Q0\":\"Northern Waterthrush\"}","bird":["Ovenbird"],"family":["Wood-Warblers"],"class":["860"],"trial_type":"image-multi-choice","trial_index":220,"time_elapsed":1275789,"internal_node_id":"0.0-1.0-219.0"},{"rt":3010,"responses":"{\"Q0\":\"White-throated Sparrow\"}","bird":["White-throated Sparrow"],"family":["New World Sparrows and Allies"],"class":["764"],"trial_type":"image-multi-choice","trial_index":221,"time_elapsed":1279805,"internal_node_id":"0.0-1.0-220.0"},{"rt":3600,"responses":"{\"Q0\":\"Vesper Sparrow\"}","bird":["Vesper Sparrow"],"family":["New World Sparrows and Allies"],"class":["898"],"trial_type":"image-multi-choice","trial_index":222,"time_elapsed":1284413,"internal_node_id":"0.0-1.0-221.0"},{"rt":4008,"responses":"{\"Q0\":\"Song Sparrow\"}","bird":["American Tree Sparrow"],"family":["New World Sparrows and Allies"],"class":["894"],"trial_type":"image-multi-choice","trial_index":223,"time_elapsed":1289427,"internal_node_id":"0.0-1.0-222.0"},{"rt":3599,"responses":"{\"Q0\":\"Song Sparrow\"}","bird":["Yellow Warbler"],"family":["Wood-Warblers"],"class":["875"],"trial_type":"image-multi-choice","trial_index":224,"time_elapsed":1294033,"internal_node_id":"0.0-1.0-223.0"},{"rt":3545,"responses":"{\"Q0\":\"Song Sparrow\"}","bird":["Northern Waterthrush"],"family":["Wood-Warblers"],"class":["862"],"trial_type":"image-multi-choice","trial_index":225,"time_elapsed":1298585,"internal_node_id":"0.0-1.0-224.0"},{"rt":2995,"responses":"{\"Q0\":\"White-throated Sparrow\"}","bird":["Blackburnian Warbler"],"family":["Wood-Warblers"],"class":["874"],"trial_type":"image-multi-choice","trial_index":226,"time_elapsed":1302588,"internal_node_id":"0.0-1.0-225.0"},{"rt":3214,"responses":"{\"Q0\":\"White-throated Sparrow\"}","bird":["White-throated Sparrow"],"family":["New World Sparrows and Allies"],"class":["764"],"trial_type":"image-multi-choice","trial_index":227,"time_elapsed":1306809,"internal_node_id":"0.0-1.0-226.0"},{"rt":3077,"responses":"{\"Q0\":\"Fox Sparrow\"}","bird":["Song Sparrow"],"family":["New World Sparrows and Allies"],"class":["902"],"trial_type":"image-multi-choice","trial_index":228,"time_elapsed":1310892,"internal_node_id":"0.0-1.0-227.0"},{"rt":2698,"responses":"{\"Q0\":\"Lark Sparrow\"}","bird":["Ovenbird"],"family":["Wood-Warblers"],"class":["860"],"trial_type":"image-multi-choice","trial_index":229,"time_elapsed":1314596,"internal_node_id":"0.0-1.0-228.0"},{"rt":3792,"responses":"{\"Q0\":\"White-crowned Sparrow\"}","bird":["Townsend's Warbler"],"family":["Wood-Warblers"],"class":["881"],"trial_type":"image-multi-choice","trial_index":230,"time_elapsed":1319394,"internal_node_id":"0.0-1.0-229.0"},{"rt":3092,"responses":"{\"Q0\":\"Yellow Warbler\"}","bird":["Nashville Warbler"],"family":["Wood-Warblers"],"class":["868"],"trial_type":"image-multi-choice","trial_index":231,"time_elapsed":1323492,"internal_node_id":"0.0-1.0-230.0"},{"rt":5767,"responses":"{\"Q0\":\"Magnolia Warbler\"}","bird":["Fox Sparrow"],"family":["New World Sparrows and Allies"],"class":["901"],"trial_type":"image-multi-choice","trial_index":232,"time_elapsed":1330267,"internal_node_id":"0.0-1.0-231.0"},{"rt":3830,"responses":"{\"Q0\":\"Lark Sparrow\"}","bird":["Ovenbird"],"family":["Wood-Warblers"],"class":["860"],"trial_type":"image-multi-choice","trial_index":233,"time_elapsed":1335104,"internal_node_id":"0.0-1.0-232.0"},{"rt":5041,"responses":"{\"Q0\":\"Black-and-white Warbler\"}","bird":["Magnolia Warbler"],"family":["Wood-Warblers"],"class":["758"],"trial_type":"image-multi-choice","trial_index":234,"time_elapsed":1341150,"internal_node_id":"0.0-1.0-233.0"},{"rt":4326,"responses":"{\"Q0\":\"Fox Sparrow\"}","bird":["American Tree Sparrow"],"family":["New World Sparrows and Allies"],"class":["894"],"trial_type":"image-multi-choice","trial_index":235,"time_elapsed":1346483,"internal_node_id":"0.0-1.0-234.0"},{"rt":3731,"responses":"{\"Q0\":\"White-throated Sparrow\"}","bird":["Blackburnian Warbler"],"family":["Wood-Warblers"],"class":["874"],"trial_type":"image-multi-choice","trial_index":236,"time_elapsed":1351222,"internal_node_id":"0.0-1.0-235.0"},{"rt":4037,"responses":"{\"Q0\":\"Nashville Warbler\"}","bird":["Chipping Sparrow"],"family":["New World Sparrows and Allies"],"class":["769"],"trial_type":"image-multi-choice","trial_index":237,"time_elapsed":1356266,"internal_node_id":"0.0-1.0-236.0"},{"rt":4246,"responses":"{\"Q0\":\"Swamp Sparrow\"}","bird":["Fox Sparrow"],"family":["New World Sparrows and Allies"],"class":["901"],"trial_type":"image-multi-choice","trial_index":238,"time_elapsed":1361519,"internal_node_id":"0.0-1.0-237.0"},{"rt":5637,"responses":"{\"Q0\":\"Swamp Sparrow\"}","bird":["Vesper Sparrow"],"family":["New World Sparrows and Allies"],"class":["898"],"trial_type":"image-multi-choice","trial_index":239,"time_elapsed":1368160,"internal_node_id":"0.0-1.0-238.0"},{"rt":3821,"responses":"{\"Q0\":\"Northern Waterthrush\"}","bird":["Northern Waterthrush"],"family":["Wood-Warblers"],"class":["862"],"trial_type":"image-multi-choice","trial_index":240,"time_elapsed":1381081,"internal_node_id":"0.0-1.0-239.0"},{"rt":4561,"responses":"{\"Q0\":\"American Tree Sparrow\"}","bird":["Lark Sparrow"],"family":["New World Sparrows and Allies"],"class":["899"],"trial_type":"image-multi-choice","trial_index":241,"time_elapsed":1386649,"internal_node_id":"0.0-1.0-240.0"},{"rt":6481,"responses":"{\"Q0\":\"American Tree Sparrow\"}","bird":["Nashville Warbler"],"family":["Wood-Warblers"],"class":["868"],"trial_type":"image-multi-choice","trial_index":242,"time_elapsed":1394137,"internal_node_id":"0.0-1.0-241.0"},{"rt":2816,"responses":"{\"Q0\":\"American Tree Sparrow\"}","bird":["Ovenbird"],"family":["Wood-Warblers"],"class":["860"],"trial_type":"image-multi-choice","trial_index":243,"time_elapsed":1397961,"internal_node_id":"0.0-1.0-242.0"},{"rt":3787,"responses":"{\"Q0\":\"American Tree Sparrow\"}","bird":["Northern Waterthrush"],"family":["Wood-Warblers"],"class":["862"],"trial_type":"image-multi-choice","trial_index":244,"time_elapsed":1402755,"internal_node_id":"0.0-1.0-243.0"},{"rt":3495,"responses":"{\"Q0\":\"American Tree Sparrow\"}","bird":["Orange-crowned Warbler"],"family":["Wood-Warblers"],"class":["867"],"trial_type":"image-multi-choice","trial_index":245,"time_elapsed":1407257,"internal_node_id":"0.0-1.0-244.0"},{"rt":5716,"responses":"{\"Q0\":\"Chipping Sparrow\"}","bird":["Chipping Sparrow"],"family":["New World Sparrows and Allies"],"class":["769"],"trial_type":"image-multi-choice","trial_index":246,"time_elapsed":1413981,"internal_node_id":"0.0-1.0-245.0"},{"rt":3620,"responses":"{\"Q0\":\"Yellow Warbler\"}","bird":["Tennessee Warbler"],"family":["Wood-Warblers"],"class":["866"],"trial_type":"image-multi-choice","trial_index":247,"time_elapsed":1418609,"internal_node_id":"0.0-1.0-246.0"},{"rt":3486,"responses":"{\"Q0\":\"American Tree Sparrow\"}","bird":["Yellow Warbler"],"family":["Wood-Warblers"],"class":["875"],"trial_type":"image-multi-choice","trial_index":248,"time_elapsed":1423102,"internal_node_id":"0.0-1.0-247.0"},{"rt":4279,"responses":"{\"Q0\":\"Chipping Sparrow\"}","bird":["Lincoln's Sparrow"],"family":["New World Sparrows and Allies"],"class":["903"],"trial_type":"image-multi-choice","trial_index":249,"time_elapsed":1428387,"internal_node_id":"0.0-1.0-248.0"},{"rt":3269,"responses":"{\"Q0\":\"Chipping Sparrow\"}","bird":["Vesper Sparrow"],"family":["New World Sparrows and Allies"],"class":["898"],"trial_type":"image-multi-choice","trial_index":250,"time_elapsed":1432663,"internal_node_id":"0.0-1.0-249.0"},{"rt":4000,"responses":"{\"Q0\":\"White-throated Sparrow\"}","bird":["Black-and-white Warbler"],"family":["Wood-Warblers"],"class":["864"],"trial_type":"image-multi-choice","trial_index":251,"time_elapsed":1437671,"internal_node_id":"0.0-1.0-250.0"},{"rt":3614,"responses":"{\"Q0\":\"White-crowned Sparrow\"}","bird":["Song Sparrow"],"family":["New World Sparrows and Allies"],"class":["902"],"trial_type":"image-multi-choice","trial_index":252,"time_elapsed":1442291,"internal_node_id":"0.0-1.0-251.0"},{"rt":4243,"responses":"{\"Q0\":\"White-throated Sparrow\"}","bird":["Chipping Sparrow"],"family":["New World Sparrows and Allies"],"class":["769"],"trial_type":"image-multi-choice","trial_index":253,"time_elapsed":1447540,"internal_node_id":"0.0-1.0-252.0"},{"rt":2687,"responses":"{\"Q0\":\"White-throated Sparrow\"}","bird":["Magnolia Warbler"],"family":["Wood-Warblers"],"class":["758"],"trial_type":"image-multi-choice","trial_index":254,"time_elapsed":1451234,"internal_node_id":"0.0-1.0-253.0"},{"rt":4068,"responses":"{\"Q0\":\"Swamp Sparrow\"}","bird":["Lincoln's Sparrow"],"family":["New World Sparrows and Allies"],"class":["903"],"trial_type":"image-multi-choice","trial_index":255,"time_elapsed":1456309,"internal_node_id":"0.0-1.0-254.0"},{"rt":3449,"responses":"{\"Q0\":\"White-throated Sparrow\"}","bird":["White-throated Sparrow"],"family":["New World Sparrows and Allies"],"class":["764"],"trial_type":"image-multi-choice","trial_index":256,"time_elapsed":1460764,"internal_node_id":"0.0-1.0-255.0"},{"rt":4951,"responses":"{\"Q0\":\"Tennessee Warbler\"}","bird":["Fox Sparrow"],"family":["New World Sparrows and Allies"],"class":["901"],"trial_type":"image-multi-choice","trial_index":257,"time_elapsed":1466723,"internal_node_id":"0.0-1.0-256.0"},{"rt":5215,"responses":"{\"Q0\":\"Fox Sparrow\"}","bird":["Black-and-white Warbler"],"family":["Wood-Warblers"],"class":["864"],"trial_type":"image-multi-choice","trial_index":258,"time_elapsed":1472943,"internal_node_id":"0.0-1.0-257.0"},{"rt":3919,"responses":"{\"Q0\":\"Chipping Sparrow\"}","bird":["Chipping Sparrow"],"family":["New World Sparrows and Allies"],"class":["769"],"trial_type":"image-multi-choice","trial_index":259,"time_elapsed":1477868,"internal_node_id":"0.0-1.0-258.0"},{"rt":2861,"responses":"{\"Q0\":\"Yellow Warbler\"}","bird":["Orange-crowned Warbler"],"family":["Wood-Warblers"],"class":["867"],"trial_type":"image-multi-choice","trial_index":260,"time_elapsed":1481735,"internal_node_id":"0.0-1.0-259.0"},{"rt":3782,"responses":"{\"Q0\":\"American Tree Sparrow\"}","bird":["Lark Sparrow"],"family":["New World Sparrows and Allies"],"class":["899"],"trial_type":"image-multi-choice","trial_index":261,"time_elapsed":1486524,"internal_node_id":"0.0-1.0-260.0"},{"rt":3232,"responses":"{\"Q0\":\"Song Sparrow\"}","bird":["Lincoln's Sparrow"],"family":["New World Sparrows and Allies"],"class":["903"],"trial_type":"image-multi-choice","trial_index":262,"time_elapsed":1490763,"internal_node_id":"0.0-1.0-261.0"},{"rt":5074,"responses":"{\"Q0\":\"Song Sparrow\"}","bird":["Northern Waterthrush"],"family":["Wood-Warblers"],"class":["862"],"trial_type":"image-multi-choice","trial_index":263,"time_elapsed":1496843,"internal_node_id":"0.0-1.0-262.0"},{"rt":3663,"responses":"{\"Q0\":\"Yellow Warbler\"}","bird":["Nashville Warbler"],"family":["Wood-Warblers"],"class":["868"],"trial_type":"image-multi-choice","trial_index":264,"time_elapsed":1501512,"internal_node_id":"0.0-1.0-263.0"},{"rt":5162,"responses":"{\"Q0\":\"American Tree Sparrow\"}","bird":["Lark Sparrow"],"family":["New World Sparrows and Allies"],"class":["899"],"trial_type":"image-multi-choice","trial_index":265,"time_elapsed":1507680,"internal_node_id":"0.0-1.0-264.0"},{"rt":4074,"responses":"{\"Q0\":\"Yellow Warbler\"}","bird":["Orange-crowned Warbler"],"family":["Wood-Warblers"],"class":["867"],"trial_type":"image-multi-choice","trial_index":266,"time_elapsed":1512762,"internal_node_id":"0.0-1.0-265.0"},{"rt":3126,"responses":"{\"Q0\":\"White-throated Sparrow\"}","bird":["Magnolia Warbler"],"family":["Wood-Warblers"],"class":["758"],"trial_type":"image-multi-choice","trial_index":267,"time_elapsed":1516894,"internal_node_id":"0.0-1.0-266.0"},{"rt":2662,"responses":"{\"Q0\":\"Yellow Warbler\"}","bird":["Orange-crowned Warbler"],"family":["Wood-Warblers"],"class":["867"],"trial_type":"image-multi-choice","trial_index":268,"time_elapsed":1520562,"internal_node_id":"0.0-1.0-267.0"},{"rt":2584,"responses":"{\"Q0\":\"Yellow Warbler\"}","bird":["Yellow Warbler"],"family":["Wood-Warblers"],"class":["875"],"trial_type":"image-multi-choice","trial_index":269,"time_elapsed":1524153,"internal_node_id":"0.0-1.0-268.0"},{"rt":2738,"responses":"{\"Q0\":\"Yellow Warbler\"}","bird":["Orange-crowned Warbler"],"family":["Wood-Warblers"],"class":["867"],"trial_type":"image-multi-choice","trial_index":270,"time_elapsed":1527897,"internal_node_id":"0.0-1.0-269.0"},{"rt":7829,"responses":"{\"Q0\":\"Chipping Sparrow\"}","bird":["Lincoln's Sparrow"],"family":["New World Sparrows and Allies"],"class":["903"],"trial_type":"image-multi-choice","trial_index":271,"time_elapsed":1536733,"internal_node_id":"0.0-1.0-270.0"},{"rt":4046,"responses":"{\"Q0\":\"White-crowned Sparrow\"}","bird":["Lark Sparrow"],"family":["New World Sparrows and Allies"],"class":["899"],"trial_type":"image-multi-choice","trial_index":272,"time_elapsed":1541785,"internal_node_id":"0.0-1.0-271.0"},{"rt":3595,"responses":"{\"Q0\":\"Song Sparrow\"}","bird":["Lincoln's Sparrow"],"family":["New World Sparrows and Allies"],"class":["903"],"trial_type":"image-multi-choice","trial_index":273,"time_elapsed":1546387,"internal_node_id":"0.0-1.0-272.0"},{"rt":2854,"responses":"{\"Q0\":\"Yellow Warbler\"}","bird":["Nashville Warbler"],"family":["Wood-Warblers"],"class":["868"],"trial_type":"image-multi-choice","trial_index":274,"time_elapsed":1550247,"internal_node_id":"0.0-1.0-273.0"},{"rt":3322,"responses":"{\"Q0\":\"American Tree Sparrow\"}","bird":["Lark Sparrow"],"family":["New World Sparrows and Allies"],"class":["899"],"trial_type":"image-multi-choice","trial_index":275,"time_elapsed":1554574,"internal_node_id":"0.0-1.0-274.0"},{"rt":5269,"responses":"{\"Q0\":\"Chipping Sparrow\"}","bird":["Chipping Sparrow"],"family":["New World Sparrows and Allies"],"class":["769"],"trial_type":"image-multi-choice","trial_index":276,"time_elapsed":1560851,"internal_node_id":"0.0-1.0-275.0"},{"rt":2692,"responses":"{\"Q0\":\"White-throated Sparrow\"}","bird":["White-throated Sparrow"],"family":["New World Sparrows and Allies"],"class":["764"],"trial_type":"image-multi-choice","trial_index":277,"time_elapsed":1564550,"internal_node_id":"0.0-1.0-276.0"},{"rt":3601,"responses":"{\"Q0\":\"Vesper Sparrow\"}","bird":["Song Sparrow"],"family":["New World Sparrows and Allies"],"class":["902"],"trial_type":"image-multi-choice","trial_index":278,"time_elapsed":1569157,"internal_node_id":"0.0-1.0-277.0"},{"rt":5710,"responses":"{\"Q0\":\"Magnolia Warbler\"}","bird":["Ovenbird"],"family":["Wood-Warblers"],"class":["860"],"trial_type":"image-multi-choice","trial_index":279,"time_elapsed":1575873,"internal_node_id":"0.0-1.0-278.0"},{"rt":3515,"responses":"{\"Q0\":\"White-crowned Sparrow\"}","bird":["Lark Sparrow"],"family":["New World Sparrows and Allies"],"class":["899"],"trial_type":"image-multi-choice","trial_index":280,"time_elapsed":1580395,"internal_node_id":"0.0-1.0-279.0"},{"rt":4499,"responses":"{\"Q0\":\"American Tree Sparrow\"}","bird":["Chipping Sparrow"],"family":["New World Sparrows and Allies"],"class":["769"],"trial_type":"image-multi-choice","trial_index":281,"time_elapsed":1585899,"internal_node_id":"0.0-1.0-280.0"},{"rt":3248,"responses":"{\"Q0\":\"American Tree Sparrow\"}","bird":["Lark Sparrow"],"family":["New World Sparrows and Allies"],"class":["899"],"trial_type":"image-multi-choice","trial_index":282,"time_elapsed":1590155,"internal_node_id":"0.0-1.0-281.0"},{"rt":3545,"responses":"{\"Q0\":\"White-throated Sparrow\"}","bird":["Song Sparrow"],"family":["New World Sparrows and Allies"],"class":["902"],"trial_type":"image-multi-choice","trial_index":283,"time_elapsed":1594707,"internal_node_id":"0.0-1.0-282.0"},{"rt":2794,"responses":"{\"Q0\":\"White-throated Sparrow\"}","bird":["White-throated Sparrow"],"family":["New World Sparrows and Allies"],"class":["764"],"trial_type":"image-multi-choice","trial_index":284,"time_elapsed":1598507,"internal_node_id":"0.0-1.0-283.0"},{"rt":4624,"responses":"{\"Q0\":\"Lark Sparrow\"}","bird":["Magnolia Warbler"],"family":["Wood-Warblers"],"class":["758"],"trial_type":"image-multi-choice","trial_index":285,"time_elapsed":1604137,"internal_node_id":"0.0-1.0-284.0"},{"rt":2577,"responses":"{\"Q0\":\"Yellow Warbler\"}","bird":["Orange-crowned Warbler"],"family":["Wood-Warblers"],"class":["867"],"trial_type":"image-multi-choice","trial_index":286,"time_elapsed":1607719,"internal_node_id":"0.0-1.0-285.0"},{"rt":3264,"responses":"{\"Q0\":\"Chipping Sparrow\"}","bird":["Lincoln's Sparrow"],"family":["New World Sparrows and Allies"],"class":["903"],"trial_type":"image-multi-choice","trial_index":287,"time_elapsed":1611994,"internal_node_id":"0.0-1.0-286.0"},{"rt":5209,"responses":"{\"Q0\":\"White-crowned Sparrow\"}","bird":["Lark Sparrow"],"family":["New World Sparrows and Allies"],"class":["899"],"trial_type":"image-multi-choice","trial_index":288,"time_elapsed":1618210,"internal_node_id":"0.0-1.0-287.0"},{"rt":4507,"responses":"{\"Q0\":\"Tennessee Warbler\"}","bird":["Townsend's Warbler"],"family":["Wood-Warblers"],"class":["881"],"trial_type":"image-multi-choice","trial_index":289,"time_elapsed":1623725,"internal_node_id":"0.0-1.0-288.0"},{"rt":5579,"responses":"{\"Q0\":\"Lark Sparrow\"}","bird":["Black-and-white Warbler"],"family":["Wood-Warblers"],"class":["864"],"trial_type":"image-multi-choice","trial_index":290,"time_elapsed":1630311,"internal_node_id":"0.0-1.0-289.0"},{"rt":4300,"responses":"{\"Q0\":\"Northern Waterthrush\"}","bird":["Tennessee Warbler"],"family":["Wood-Warblers"],"class":["866"],"trial_type":"image-multi-choice","trial_index":291,"time_elapsed":1635619,"internal_node_id":"0.0-1.0-290.0"},{"rt":4245,"responses":"{\"Q0\":\"American Tree Sparrow\"}","bird":["American Tree Sparrow"],"family":["New World Sparrows and Allies"],"class":["894"],"trial_type":"image-multi-choice","trial_index":292,"time_elapsed":1640868,"internal_node_id":"0.0-1.0-291.0"},{"rt":3898,"responses":"{\"Q0\":\"Black-and-white Warbler\"}","bird":["Chipping Sparrow"],"family":["New World Sparrows and Allies"],"class":["769"],"trial_type":"image-multi-choice","trial_index":293,"time_elapsed":1645774,"internal_node_id":"0.0-1.0-292.0"},{"rt":3715,"responses":"{\"Q0\":\"American Tree Sparrow\"}","bird":["Lark Sparrow"],"family":["New World Sparrows and Allies"],"class":["899"],"trial_type":"image-multi-choice","trial_index":294,"time_elapsed":1650495,"internal_node_id":"0.0-1.0-293.0"},{"rt":2782,"responses":"{\"Q0\":\"White-throated Sparrow\"}","bird":["Magnolia Warbler"],"family":["Wood-Warblers"],"class":["758"],"trial_type":"image-multi-choice","trial_index":295,"time_elapsed":1654283,"internal_node_id":"0.0-1.0-294.0"},{"rt":3825,"responses":"{\"Q0\":\"Tennessee Warbler\"}","bird":["Yellow Warbler"],"family":["Wood-Warblers"],"class":["875"],"trial_type":"image-multi-choice","trial_index":296,"time_elapsed":1659115,"internal_node_id":"0.0-1.0-295.0"},{"rt":3604,"responses":"{\"Q0\":\"White-crowned Sparrow\"}","bird":["White-crowned Sparrow"],"family":["New World Sparrows and Allies"],"class":["766"],"trial_type":"image-multi-choice","trial_index":297,"time_elapsed":1663726,"internal_node_id":"0.0-1.0-296.0"},{"rt":4726,"responses":"{\"Q0\":\"Chipping Sparrow\"}","bird":["Swamp Sparrow"],"family":["New World Sparrows and Allies"],"class":["904"],"trial_type":"image-multi-choice","trial_index":298,"time_elapsed":1669459,"internal_node_id":"0.0-1.0-297.0"},{"rt":2297,"responses":"{\"Q0\":\"Yellow Warbler\"}","bird":["Orange-crowned Warbler"],"family":["Wood-Warblers"],"class":["867"],"trial_type":"image-multi-choice","trial_index":299,"time_elapsed":1672762,"internal_node_id":"0.0-1.0-298.0"},{"rt":6365,"responses":"{\"Q0\":\"Song Sparrow\"}","bird":["Vesper Sparrow"],"family":["New World Sparrows and Allies"],"class":["898"],"trial_type":"image-multi-choice","trial_index":300,"time_elapsed":1685097,"internal_node_id":"0.0-1.0-299.0"},{"view_history":"[{\"page_index\":0,\"viewing_time\":1101}]","rt":1101,"trial_type":"instructions","trial_index":301,"time_elapsed":1687199,"internal_node_id":"0.0-2.0"}]