"view_history","rt","trial_type","trial_index","time_elapsed","internal_node_id","responses","bird","family","class"
"[{""page_index"":0,""viewing_time"":24864}]","24865","instructions","0","24866","0.0-0.0","","","",""
"","18099","image-multi-choice","1","43982","0.0-1.0-0.0","{""Q0"":""Blackburnian Warbler""}","Townsend's Warbler","Wood-Warblers","881"
"","4394","image-multi-choice","2","49388","0.0-1.0-1.0","{""Q0"":""Lark Sparrow""}","Lark Sparrow","New World Sparrows and Allies","899"
"","5363","image-multi-choice","3","55761","0.0-1.0-2.0","{""Q0"":""White-crowned Sparrow""}","White-crowned Sparrow","New World Sparrows and Allies","766"
"","4621","image-multi-choice","4","61389","0.0-1.0-3.0","{""Q0"":""Lark Sparrow""}","Lark Sparrow","New World Sparrows and Allies","899"
"","3795","image-multi-choice","5","66193","0.0-1.0-4.0","{""Q0"":""White-throated Sparrow""}","White-throated Sparrow","New World Sparrows and Allies","764"
"","4394","image-multi-choice","6","71596","0.0-1.0-5.0","{""Q0"":""White-crowned Sparrow""}","White-crowned Sparrow","New World Sparrows and Allies","766"
"","6735","image-multi-choice","7","79340","0.0-1.0-6.0","{""Q0"":""Tennessee Warbler""}","Tennessee Warbler","Wood-Warblers","866"
"","4097","image-multi-choice","8","84449","0.0-1.0-7.0","{""Q0"":""White-crowned Sparrow""}","White-crowned Sparrow","New World Sparrows and Allies","766"
"","8322","image-multi-choice","9","93780","0.0-1.0-8.0","{""Q0"":""Orange-crowned Warbler""}","Orange-crowned Warbler","Wood-Warblers","867"
"","13228","image-multi-choice","10","108017","0.0-1.0-9.0","{""Q0"":""Chipping Sparrow""}","Swamp Sparrow","New World Sparrows and Allies","904"
"","5403","image-multi-choice","11","114429","0.0-1.0-10.0","{""Q0"":""Tennessee Warbler""}","Orange-crowned Warbler","Wood-Warblers","867"
"","4301","image-multi-choice","12","119738","0.0-1.0-11.0","{""Q0"":""White-crowned Sparrow""}","White-crowned Sparrow","New World Sparrows and Allies","766"
"","7993","image-multi-choice","13","128740","0.0-1.0-12.0","{""Q0"":""Magnolia Warbler""}","Townsend's Warbler","Wood-Warblers","881"
"","4227","image-multi-choice","14","133974","0.0-1.0-13.0","{""Q0"":""Lincoln's Sparrow""}","Lincoln's Sparrow","New World Sparrows and Allies","903"
"","3292","image-multi-choice","15","138273","0.0-1.0-14.0","{""Q0"":""Ovenbird""}","Ovenbird","Wood-Warblers","860"
"","7174","image-multi-choice","16","146454","0.0-1.0-15.0","{""Q0"":""Tennessee Warbler""}","Tennessee Warbler","Wood-Warblers","866"
"","4970","image-multi-choice","17","152433","0.0-1.0-16.0","{""Q0"":""Vesper Sparrow""}","Vesper Sparrow","New World Sparrows and Allies","898"
"","7836","image-multi-choice","18","161278","0.0-1.0-17.0","{""Q0"":""Tennessee Warbler""}","Tennessee Warbler","Wood-Warblers","866"
"","31521","image-multi-choice","19","193810","0.0-1.0-18.0","{""Q0"":""Swamp Sparrow""}","Vesper Sparrow","New World Sparrows and Allies","898"
"","5359","image-multi-choice","20","200178","0.0-1.0-19.0","{""Q0"":""Song Sparrow""}","Song Sparrow","New World Sparrows and Allies","902"
"","4923","image-multi-choice","21","206109","0.0-1.0-20.0","{""Q0"":""Magnolia Warbler""}","Magnolia Warbler","Wood-Warblers","758"
"","5521","image-multi-choice","22","212639","0.0-1.0-21.0","{""Q0"":""Tennessee Warbler""}","Orange-crowned Warbler","Wood-Warblers","867"
"","6136","image-multi-choice","23","219782","0.0-1.0-22.0","{""Q0"":""Magnolia Warbler""}","Townsend's Warbler","Wood-Warblers","881"
"","3140","image-multi-choice","24","223929","0.0-1.0-23.0","{""Q0"":""Ovenbird""}","Ovenbird","Wood-Warblers","860"
"","4784","image-multi-choice","25","229721","0.0-1.0-24.0","{""Q0"":""Lincoln's Sparrow""}","Lincoln's Sparrow","New World Sparrows and Allies","903"
"","3508","image-multi-choice","26","234237","0.0-1.0-25.0","{""Q0"":""White-throated Sparrow""}","White-throated Sparrow","New World Sparrows and Allies","764"
"","2767","image-multi-choice","27","238012","0.0-1.0-26.0","{""Q0"":""Ovenbird""}","Ovenbird","Wood-Warblers","860"
"","4468","image-multi-choice","28","243488","0.0-1.0-27.0","{""Q0"":""White-crowned Sparrow""}","Chipping Sparrow","New World Sparrows and Allies","769"
"","4009","image-multi-choice","29","248504","0.0-1.0-28.0","{""Q0"":""Fox Sparrow""}","Fox Sparrow","New World Sparrows and Allies","901"
"","3582","image-multi-choice","30","253094","0.0-1.0-29.0","{""Q0"":""Magnolia Warbler""}","Magnolia Warbler","Wood-Warblers","758"
"","11754","image-multi-choice","31","265855","0.0-1.0-30.0","{""Q0"":""Northern Waterthrush""}","Northern Waterthrush","Wood-Warblers","862"
"","5223","image-multi-choice","32","272087","0.0-1.0-31.0","{""Q0"":""Tennessee Warbler""}","Tennessee Warbler","Wood-Warblers","866"
"","2981","image-multi-choice","33","276075","0.0-1.0-32.0","{""Q0"":""Magnolia Warbler""}","Magnolia Warbler","Wood-Warblers","758"
"","5069","image-multi-choice","34","282150","0.0-1.0-33.0","{""Q0"":""Song Sparrow""}","Song Sparrow","New World Sparrows and Allies","902"
"","2996","image-multi-choice","35","286153","0.0-1.0-34.0","{""Q0"":""Lark Sparrow""}","Lark Sparrow","New World Sparrows and Allies","899"
"","8660","image-multi-choice","36","295822","0.0-1.0-35.0","{""Q0"":""Nashville Warbler""}","Nashville Warbler","Wood-Warblers","868"
"","5572","image-multi-choice","37","302407","0.0-1.0-36.0","{""Q0"":""Northern Waterthrush""}","Northern Waterthrush","Wood-Warblers","862"
"","6502","image-multi-choice","38","309917","0.0-1.0-37.0","{""Q0"":""Swamp Sparrow""}","Chipping Sparrow","New World Sparrows and Allies","769"
"","3000","image-multi-choice","39","313924","0.0-1.0-38.0","{""Q0"":""Yellow Warbler""}","Yellow Warbler","Wood-Warblers","875"
"","3338","image-multi-choice","40","318269","0.0-1.0-39.0","{""Q0"":""Ovenbird""}","Ovenbird","Wood-Warblers","860"
"","3338","image-multi-choice","41","322617","0.0-1.0-40.0","{""Q0"":""Black-and-white Warbler""}","Black-and-white Warbler","Wood-Warblers","864"
"","7091","image-multi-choice","42","330715","0.0-1.0-41.0","{""Q0"":""Tennessee Warbler""}","Tennessee Warbler","Wood-Warblers","866"
"","5646","image-multi-choice","43","337369","0.0-1.0-42.0","{""Q0"":""Song Sparrow""}","Song Sparrow","New World Sparrows and Allies","902"
"","3964","image-multi-choice","44","342341","0.0-1.0-43.0","{""Q0"":""Blackburnian Warbler""}","Blackburnian Warbler","Wood-Warblers","874"
"","3243","image-multi-choice","45","346591","0.0-1.0-44.0","{""Q0"":""Black-and-white Warbler""}","Black-and-white Warbler","Wood-Warblers","864"
"","4129","image-multi-choice","46","351728","0.0-1.0-45.0","{""Q0"":""Magnolia Warbler""}","Magnolia Warbler","Wood-Warblers","758"
"","2767","image-multi-choice","47","355501","0.0-1.0-46.0","{""Q0"":""Ovenbird""}","Ovenbird","Wood-Warblers","860"
"","5505","image-multi-choice","48","362017","0.0-1.0-47.0","{""Q0"":""Vesper Sparrow""}","Vesper Sparrow","New World Sparrows and Allies","898"
"","3296","image-multi-choice","49","366321","0.0-1.0-48.0","{""Q0"":""Lark Sparrow""}","Lark Sparrow","New World Sparrows and Allies","899"
"","3251","image-multi-choice","50","370580","0.0-1.0-49.0","{""Q0"":""Black-and-white Warbler""}","Black-and-white Warbler","Wood-Warblers","864"
"","8149","image-multi-choice","51","379737","0.0-1.0-50.0","{""Q0"":""Magnolia Warbler""}","Townsend's Warbler","Wood-Warblers","881"
"","8270","image-multi-choice","52","389015","0.0-1.0-51.0","{""Q0"":""Yellow Warbler""}","Nashville Warbler","Wood-Warblers","868"
"","6702","image-multi-choice","53","396723","0.0-1.0-52.0","{""Q0"":""Chipping Sparrow""}","Chipping Sparrow","New World Sparrows and Allies","769"
"","3190","image-multi-choice","54","400921","0.0-1.0-53.0","{""Q0"":""Swamp Sparrow""}","Swamp Sparrow","New World Sparrows and Allies","904"
"","3028","image-multi-choice","55","404956","0.0-1.0-54.0","{""Q0"":""White-crowned Sparrow""}","White-crowned Sparrow","New World Sparrows and Allies","766"
"","2767","image-multi-choice","56","408730","0.0-1.0-55.0","{""Q0"":""Black-and-white Warbler""}","Black-and-white Warbler","Wood-Warblers","864"
"","6071","image-multi-choice","57","415808","0.0-1.0-56.0","{""Q0"":""Tennessee Warbler""}","Tennessee Warbler","Wood-Warblers","866"
"","6536","image-multi-choice","58","423353","0.0-1.0-57.0","{""Q0"":""Black-and-white Warbler""}","Townsend's Warbler","Wood-Warblers","881"
"","4968","image-multi-choice","59","429328","0.0-1.0-58.0","{""Q0"":""Orange-crowned Warbler""}","Nashville Warbler","Wood-Warblers","868"
"","3625","image-multi-choice","60","454197","0.0-1.0-59.0","{""Q0"":""Lincoln's Sparrow""}","Lincoln's Sparrow","New World Sparrows and Allies","903"
"","4315","image-multi-choice","61","459522","0.0-1.0-60.0","{""Q0"":""Song Sparrow""}","Song Sparrow","New World Sparrows and Allies","902"
"","2883","image-multi-choice","62","463414","0.0-1.0-61.0","{""Q0"":""Yellow Warbler""}","Yellow Warbler","Wood-Warblers","875"
"","3572","image-multi-choice","63","467992","0.0-1.0-62.0","{""Q0"":""White-throated Sparrow""}","White-throated Sparrow","New World Sparrows and Allies","764"
"","5007","image-multi-choice","64","474010","0.0-1.0-63.0","{""Q0"":""Tennessee Warbler""}","Tennessee Warbler","Wood-Warblers","866"
"","4142","image-multi-choice","65","479161","0.0-1.0-64.0","{""Q0"":""Lincoln's Sparrow""}","Lincoln's Sparrow","New World Sparrows and Allies","903"
"","4167","image-multi-choice","66","484337","0.0-1.0-65.0","{""Q0"":""Blackburnian Warbler""}","Blackburnian Warbler","Wood-Warblers","874"
"","3549","image-multi-choice","67","488894","0.0-1.0-66.0","{""Q0"":""Northern Waterthrush""}","Northern Waterthrush","Wood-Warblers","862"
"","3370","image-multi-choice","68","493270","0.0-1.0-67.0","{""Q0"":""Yellow Warbler""}","Yellow Warbler","Wood-Warblers","875"
"","3113","image-multi-choice","69","497390","0.0-1.0-68.0","{""Q0"":""Lincoln's Sparrow""}","Lincoln's Sparrow","New World Sparrows and Allies","903"
"","3358","image-multi-choice","70","501757","0.0-1.0-69.0","{""Q0"":""Swamp Sparrow""}","American Tree Sparrow","New World Sparrows and Allies","894"
"","5220","image-multi-choice","71","507985","0.0-1.0-70.0","{""Q0"":""Orange-crowned Warbler""}","Orange-crowned Warbler","Wood-Warblers","867"
"","3316","image-multi-choice","72","512310","0.0-1.0-71.0","{""Q0"":""Lincoln's Sparrow""}","Lincoln's Sparrow","New World Sparrows and Allies","903"
"","3551","image-multi-choice","73","516869","0.0-1.0-72.0","{""Q0"":""Magnolia Warbler""}","Magnolia Warbler","Wood-Warblers","758"
"","3529","image-multi-choice","74","521404","0.0-1.0-73.0","{""Q0"":""Lincoln's Sparrow""}","Lincoln's Sparrow","New World Sparrows and Allies","903"
"","3577","image-multi-choice","75","525990","0.0-1.0-74.0","{""Q0"":""Yellow Warbler""}","Yellow Warbler","Wood-Warblers","875"
"","2778","image-multi-choice","76","529777","0.0-1.0-75.0","{""Q0"":""White-crowned Sparrow""}","White-crowned Sparrow","New World Sparrows and Allies","766"
"","6339","image-multi-choice","77","537125","0.0-1.0-76.0","{""Q0"":""Nashville Warbler""}","Nashville Warbler","Wood-Warblers","868"
"","4757","image-multi-choice","78","542891","0.0-1.0-77.0","{""Q0"":""American Tree Sparrow""}","American Tree Sparrow","New World Sparrows and Allies","894"
"","9163","image-multi-choice","79","553062","0.0-1.0-78.0","{""Q0"":""Magnolia Warbler""}","Townsend's Warbler","Wood-Warblers","881"
"","7332","image-multi-choice","80","561403","0.0-1.0-79.0","{""Q0"":""Chipping Sparrow""}","Chipping Sparrow","New World Sparrows and Allies","769"
"","3253","image-multi-choice","81","565663","0.0-1.0-80.0","{""Q0"":""White-throated Sparrow""}","White-throated Sparrow","New World Sparrows and Allies","764"
"","2765","image-multi-choice","82","569435","0.0-1.0-81.0","{""Q0"":""Ovenbird""}","Ovenbird","Wood-Warblers","860"
"","3335","image-multi-choice","83","573776","0.0-1.0-82.0","{""Q0"":""White-crowned Sparrow""}","White-crowned Sparrow","New World Sparrows and Allies","766"
"","3423","image-multi-choice","84","578208","0.0-1.0-83.0","{""Q0"":""Magnolia Warbler""}","Magnolia Warbler","Wood-Warblers","758"
"","2351","image-multi-choice","85","581568","0.0-1.0-84.0","{""Q0"":""Yellow Warbler""}","Yellow Warbler","Wood-Warblers","875"
"","3382","image-multi-choice","86","585959","0.0-1.0-85.0","{""Q0"":""Lark Sparrow""}","Lark Sparrow","New World Sparrows and Allies","899"
"","3398","image-multi-choice","87","590365","0.0-1.0-86.0","{""Q0"":""Lincoln's Sparrow""}","Lincoln's Sparrow","New World Sparrows and Allies","903"
"","3419","image-multi-choice","88","594793","0.0-1.0-87.0","{""Q0"":""Black-and-white Warbler""}","Black-and-white Warbler","Wood-Warblers","864"
"","2710","image-multi-choice","89","598511","0.0-1.0-88.0","{""Q0"":""White-crowned Sparrow""}","White-crowned Sparrow","New World Sparrows and Allies","766"
"","4678","image-multi-choice","90","604197","0.0-1.0-89.0","{""Q0"":""Magnolia Warbler""}","Townsend's Warbler","Wood-Warblers","881"
"","2912","image-multi-choice","91","608116","0.0-1.0-90.0","{""Q0"":""White-throated Sparrow""}","White-throated Sparrow","New World Sparrows and Allies","764"
"","3827","image-multi-choice","92","612954","0.0-1.0-91.0","{""Q0"":""Magnolia Warbler""}","Magnolia Warbler","Wood-Warblers","758"
"","4315","image-multi-choice","93","618276","0.0-1.0-92.0","{""Q0"":""Lincoln's Sparrow""}","Lincoln's Sparrow","New World Sparrows and Allies","903"
"","6088","image-multi-choice","94","625372","0.0-1.0-93.0","{""Q0"":""Magnolia Warbler""}","Blackburnian Warbler","Wood-Warblers","874"
"","5157","image-multi-choice","95","631538","0.0-1.0-94.0","{""Q0"":""Vesper Sparrow""}","Vesper Sparrow","New World Sparrows and Allies","898"
"","3061","image-multi-choice","96","635607","0.0-1.0-95.0","{""Q0"":""Lark Sparrow""}","Lark Sparrow","New World Sparrows and Allies","899"
"","3054","image-multi-choice","97","639672","0.0-1.0-96.0","{""Q0"":""Swamp Sparrow""}","Swamp Sparrow","New World Sparrows and Allies","904"
"","3232","image-multi-choice","98","643911","0.0-1.0-97.0","{""Q0"":""Northern Waterthrush""}","Northern Waterthrush","Wood-Warblers","862"
"","2727","image-multi-choice","99","647649","0.0-1.0-98.0","{""Q0"":""Ovenbird""}","Ovenbird","Wood-Warblers","860"
"","2772","image-multi-choice","100","651429","0.0-1.0-99.0","{""Q0"":""White-throated Sparrow""}","White-throated Sparrow","New World Sparrows and Allies","764"
"","4975","image-multi-choice","101","657412","0.0-1.0-100.0","{""Q0"":""Nashville Warbler""}","Nashville Warbler","Wood-Warblers","868"
"","3155","image-multi-choice","102","661574","0.0-1.0-101.0","{""Q0"":""Magnolia Warbler""}","Magnolia Warbler","Wood-Warblers","758"
"","6085","image-multi-choice","103","668666","0.0-1.0-102.0","{""Q0"":""Swamp Sparrow""}","Swamp Sparrow","New World Sparrows and Allies","904"
"","3878","image-multi-choice","104","673553","0.0-1.0-103.0","{""Q0"":""Blackburnian Warbler""}","Blackburnian Warbler","Wood-Warblers","874"
"","3244","image-multi-choice","105","677806","0.0-1.0-104.0","{""Q0"":""Northern Waterthrush""}","Northern Waterthrush","Wood-Warblers","862"
"","3567","image-multi-choice","106","682380","0.0-1.0-105.0","{""Q0"":""Swamp Sparrow""}","Swamp Sparrow","New World Sparrows and Allies","904"
"","2953","image-multi-choice","107","686341","0.0-1.0-106.0","{""Q0"":""Song Sparrow""}","Song Sparrow","New World Sparrows and Allies","902"
"","3038","image-multi-choice","108","690387","0.0-1.0-107.0","{""Q0"":""Black-and-white Warbler""}","Black-and-white Warbler","Wood-Warblers","864"
"","3343","image-multi-choice","109","694737","0.0-1.0-108.0","{""Q0"":""Blackburnian Warbler""}","Blackburnian Warbler","Wood-Warblers","874"
"","4606","image-multi-choice","110","700351","0.0-1.0-109.0","{""Q0"":""Nashville Warbler""}","Nashville Warbler","Wood-Warblers","868"
"","6031","image-multi-choice","111","707391","0.0-1.0-110.0","{""Q0"":""Chipping Sparrow""}","Chipping Sparrow","New World Sparrows and Allies","769"
"","4814","image-multi-choice","112","713213","0.0-1.0-111.0","{""Q0"":""American Tree Sparrow""}","American Tree Sparrow","New World Sparrows and Allies","894"
"","3402","image-multi-choice","113","717624","0.0-1.0-112.0","{""Q0"":""Northern Waterthrush""}","Northern Waterthrush","Wood-Warblers","862"
"","2517","image-multi-choice","114","721148","0.0-1.0-113.0","{""Q0"":""Yellow Warbler""}","Yellow Warbler","Wood-Warblers","875"
"","4707","image-multi-choice","115","726862","0.0-1.0-114.0","{""Q0"":""Tennessee Warbler""}","Tennessee Warbler","Wood-Warblers","866"
"","4146","image-multi-choice","116","732016","0.0-1.0-115.0","{""Q0"":""Lincoln's Sparrow""}","Lincoln's Sparrow","New World Sparrows and Allies","903"
"","6490","image-multi-choice","117","739513","0.0-1.0-116.0","{""Q0"":""Black-and-white Warbler""}","Black-and-white Warbler","Wood-Warblers","864"
"","4565","image-multi-choice","118","745085","0.0-1.0-117.0","{""Q0"":""Song Sparrow""}","Song Sparrow","New World Sparrows and Allies","902"
"","4581","image-multi-choice","119","750675","0.0-1.0-118.0","{""Q0"":""Lincoln's Sparrow""}","Lincoln's Sparrow","New World Sparrows and Allies","903"
"","3443","image-multi-choice","120","763608","0.0-1.0-119.0","{""Q0"":""Blackburnian Warbler""}","Blackburnian Warbler","Wood-Warblers","874"
"","5471","image-multi-choice","121","770086","0.0-1.0-120.0","{""Q0"":""Nashville Warbler""}","Nashville Warbler","Wood-Warblers","868"
"","3354","image-multi-choice","122","774449","0.0-1.0-121.0","{""Q0"":""Lincoln's Sparrow""}","Vesper Sparrow","New World Sparrows and Allies","898"
"","6906","image-multi-choice","123","782363","0.0-1.0-122.0","{""Q0"":""Magnolia Warbler""}","Townsend's Warbler","Wood-Warblers","881"
"","5520","image-multi-choice","124","788893","0.0-1.0-123.0","{""Q0"":""Song Sparrow""}","Song Sparrow","New World Sparrows and Allies","902"
"","2996","image-multi-choice","125","792900","0.0-1.0-124.0","{""Q0"":""White-throated Sparrow""}","White-throated Sparrow","New World Sparrows and Allies","764"
"","6088","image-multi-choice","126","799995","0.0-1.0-125.0","{""Q0"":""Nashville Warbler""}","Nashville Warbler","Wood-Warblers","868"
"","4837","image-multi-choice","127","805840","0.0-1.0-126.0","{""Q0"":""Fox Sparrow""}","Fox Sparrow","New World Sparrows and Allies","901"
"","4655","image-multi-choice","128","811502","0.0-1.0-127.0","{""Q0"":""Magnolia Warbler""}","Magnolia Warbler","Wood-Warblers","758"
"","6332","image-multi-choice","129","818842","0.0-1.0-128.0","{""Q0"":""Orange-crowned Warbler""}","Nashville Warbler","Wood-Warblers","868"
"","3993","image-multi-choice","130","823843","0.0-1.0-129.0","{""Q0"":""Swamp Sparrow""}","Swamp Sparrow","New World Sparrows and Allies","904"
"","2881","image-multi-choice","131","827732","0.0-1.0-130.0","{""Q0"":""White-throated Sparrow""}","White-throated Sparrow","New World Sparrows and Allies","764"
"","4956","image-multi-choice","132","833694","0.0-1.0-131.0","{""Q0"":""Swamp Sparrow""}","Song Sparrow","New World Sparrows and Allies","902"
"","3944","image-multi-choice","133","838644","0.0-1.0-132.0","{""Q0"":""Yellow Warbler""}","Yellow Warbler","Wood-Warblers","875"
"","4194","image-multi-choice","134","843849","0.0-1.0-133.0","{""Q0"":""Townsend's Warbler""}","Townsend's Warbler","Wood-Warblers","881"
"","3246","image-multi-choice","135","848103","0.0-1.0-134.0","{""Q0"":""Fox Sparrow""}","Fox Sparrow","New World Sparrows and Allies","901"
"","2792","image-multi-choice","136","851900","0.0-1.0-135.0","{""Q0"":""White-crowned Sparrow""}","White-crowned Sparrow","New World Sparrows and Allies","766"
"","3769","image-multi-choice","137","856679","0.0-1.0-136.0","{""Q0"":""Magnolia Warbler""}","Magnolia Warbler","Wood-Warblers","758"
"","3445","image-multi-choice","138","861132","0.0-1.0-137.0","{""Q0"":""Blackburnian Warbler""}","Blackburnian Warbler","Wood-Warblers","874"
"","3743","image-multi-choice","139","865882","0.0-1.0-138.0","{""Q0"":""Magnolia Warbler""}","Magnolia Warbler","Wood-Warblers","758"
"","6467","image-multi-choice","140","873357","0.0-1.0-139.0","{""Q0"":""Chipping Sparrow""}","Chipping Sparrow","New World Sparrows and Allies","769"
"","3768","image-multi-choice","141","878134","0.0-1.0-140.0","{""Q0"":""White-crowned Sparrow""}","American Tree Sparrow","New World Sparrows and Allies","894"
"","4993","image-multi-choice","142","884135","0.0-1.0-141.0","{""Q0"":""Orange-crowned Warbler""}","Orange-crowned Warbler","Wood-Warblers","867"
"","3287","image-multi-choice","143","888429","0.0-1.0-142.0","{""Q0"":""Fox Sparrow""}","Fox Sparrow","New World Sparrows and Allies","901"
"","2859","image-multi-choice","144","892297","0.0-1.0-143.0","{""Q0"":""Yellow Warbler""}","Yellow Warbler","Wood-Warblers","875"
"","4229","image-multi-choice","145","897534","0.0-1.0-144.0","{""Q0"":""American Tree Sparrow""}","American Tree Sparrow","New World Sparrows and Allies","894"
"","4086","image-multi-choice","146","902627","0.0-1.0-145.0","{""Q0"":""Swamp Sparrow""}","Swamp Sparrow","New World Sparrows and Allies","904"
"","4190","image-multi-choice","147","907827","0.0-1.0-146.0","{""Q0"":""Lark Sparrow""}","Lark Sparrow","New World Sparrows and Allies","899"
"","3122","image-multi-choice","148","911957","0.0-1.0-147.0","{""Q0"":""Lincoln's Sparrow""}","Vesper Sparrow","New World Sparrows and Allies","898"
"","3098","image-multi-choice","149","916064","0.0-1.0-148.0","{""Q0"":""Fox Sparrow""}","Fox Sparrow","New World Sparrows and Allies","901"
"","4204","image-multi-choice","150","921275","0.0-1.0-149.0","{""Q0"":""Song Sparrow""}","Song Sparrow","New World Sparrows and Allies","902"
"","6284","image-multi-choice","151","928567","0.0-1.0-150.0","{""Q0"":""Townsend's Warbler""}","Blackburnian Warbler","Wood-Warblers","874"
"","4394","image-multi-choice","152","933968","0.0-1.0-151.0","{""Q0"":""Orange-crowned Warbler""}","Orange-crowned Warbler","Wood-Warblers","867"
"","3295","image-multi-choice","153","938269","0.0-1.0-152.0","{""Q0"":""Fox Sparrow""}","Fox Sparrow","New World Sparrows and Allies","901"
"","5537","image-multi-choice","154","944813","0.0-1.0-153.0","{""Q0"":""Tennessee Warbler""}","Orange-crowned Warbler","Wood-Warblers","867"
"","5133","image-multi-choice","155","950953","0.0-1.0-154.0","{""Q0"":""Townsend's Warbler""}","Townsend's Warbler","Wood-Warblers","881"
"","2816","image-multi-choice","156","954778","0.0-1.0-155.0","{""Q0"":""Ovenbird""}","Ovenbird","Wood-Warblers","860"
"","3676","image-multi-choice","157","959461","0.0-1.0-156.0","{""Q0"":""Orange-crowned Warbler""}","Nashville Warbler","Wood-Warblers","868"
"","4709","image-multi-choice","158","965179","0.0-1.0-157.0","{""Q0"":""Song Sparrow""}","Song Sparrow","New World Sparrows and Allies","902"
"","2218","image-multi-choice","159","968405","0.0-1.0-158.0","{""Q0"":""Yellow Warbler""}","Yellow Warbler","Wood-Warblers","875"
"","2728","image-multi-choice","160","972142","0.0-1.0-159.0","{""Q0"":""Fox Sparrow""}","Fox Sparrow","New World Sparrows and Allies","901"
"","3147","image-multi-choice","161","976298","0.0-1.0-160.0","{""Q0"":""Black-and-white Warbler""}","Black-and-white Warbler","Wood-Warblers","864"
"","4843","image-multi-choice","162","982149","0.0-1.0-161.0","{""Q0"":""Orange-crowned Warbler""}","Orange-crowned Warbler","Wood-Warblers","867"
"","3191","image-multi-choice","163","986348","0.0-1.0-162.0","{""Q0"":""American Tree Sparrow""}","American Tree Sparrow","New World Sparrows and Allies","894"
"","4004","image-multi-choice","164","991358","0.0-1.0-163.0","{""Q0"":""Townsend's Warbler""}","Townsend's Warbler","Wood-Warblers","881"
"","3353","image-multi-choice","165","995718","0.0-1.0-164.0","{""Q0"":""Song Sparrow""}","Song Sparrow","New World Sparrows and Allies","902"
"","4344","image-multi-choice","166","1001068","0.0-1.0-165.0","{""Q0"":""Tennessee Warbler""}","Nashville Warbler","Wood-Warblers","868"
"","3028","image-multi-choice","167","1005103","0.0-1.0-166.0","{""Q0"":""Tennessee Warbler""}","Tennessee Warbler","Wood-Warblers","866"
"","4778","image-multi-choice","168","1010888","0.0-1.0-167.0","{""Q0"":""Chipping Sparrow""}","Chipping Sparrow","New World Sparrows and Allies","769"
"","2794","image-multi-choice","169","1014690","0.0-1.0-168.0","{""Q0"":""Ovenbird""}","Ovenbird","Wood-Warblers","860"
"","3125","image-multi-choice","170","1018823","0.0-1.0-169.0","{""Q0"":""White-throated Sparrow""}","White-throated Sparrow","New World Sparrows and Allies","764"
"","2967","image-multi-choice","171","1022798","0.0-1.0-170.0","{""Q0"":""Fox Sparrow""}","Fox Sparrow","New World Sparrows and Allies","901"
"","5051","image-multi-choice","172","1028858","0.0-1.0-171.0","{""Q0"":""Townsend's Warbler""}","Blackburnian Warbler","Wood-Warblers","874"
"","3277","image-multi-choice","173","1033142","0.0-1.0-172.0","{""Q0"":""American Tree Sparrow""}","American Tree Sparrow","New World Sparrows and Allies","894"
"","2878","image-multi-choice","174","1037029","0.0-1.0-173.0","{""Q0"":""Swamp Sparrow""}","Swamp Sparrow","New World Sparrows and Allies","904"
"","4218","image-multi-choice","175","1042257","0.0-1.0-174.0","{""Q0"":""Townsend's Warbler""}","Townsend's Warbler","Wood-Warblers","881"
"","5682","image-multi-choice","176","1048946","0.0-1.0-175.0","{""Q0"":""Tennessee Warbler""}","Tennessee Warbler","Wood-Warblers","866"
"","3719","image-multi-choice","177","1053673","0.0-1.0-176.0","{""Q0"":""Northern Waterthrush""}","Northern Waterthrush","Wood-Warblers","862"
"","5738","image-multi-choice","178","1060419","0.0-1.0-177.0","{""Q0"":""Swamp Sparrow""}","Swamp Sparrow","New World Sparrows and Allies","904"
"","2840","image-multi-choice","179","1064268","0.0-1.0-178.0","{""Q0"":""Fox Sparrow""}","Fox Sparrow","New World Sparrows and Allies","901"
"","3205","image-multi-choice","180","1074110","0.0-1.0-179.0","{""Q0"":""American Tree Sparrow""}","American Tree Sparrow","New World Sparrows and Allies","894"
"","2788","image-multi-choice","181","1077906","0.0-1.0-180.0","{""Q0"":""Fox Sparrow""}","Fox Sparrow","New World Sparrows and Allies","901"
"","3157","image-multi-choice","182","1082072","0.0-1.0-181.0","{""Q0"":""Lincoln's Sparrow""}","Vesper Sparrow","New World Sparrows and Allies","898"
"","4452","image-multi-choice","183","1087532","0.0-1.0-182.0","{""Q0"":""Song Sparrow""}","Song Sparrow","New World Sparrows and Allies","902"
"","5280","image-multi-choice","184","1093818","0.0-1.0-183.0","{""Q0"":""Townsend's Warbler""}","Blackburnian Warbler","Wood-Warblers","874"
"","2885","image-multi-choice","185","1097712","0.0-1.0-184.0","{""Q0"":""White-crowned Sparrow""}","White-crowned Sparrow","New World Sparrows and Allies","766"
"","3433","image-multi-choice","186","1102157","0.0-1.0-185.0","{""Q0"":""American Tree Sparrow""}","American Tree Sparrow","New World Sparrows and Allies","894"
"","2834","image-multi-choice","187","1105999","0.0-1.0-186.0","{""Q0"":""Black-and-white Warbler""}","Black-and-white Warbler","Wood-Warblers","864"
"","3286","image-multi-choice","188","1110292","0.0-1.0-187.0","{""Q0"":""Lark Sparrow""}","Lark Sparrow","New World Sparrows and Allies","899"
"","4502","image-multi-choice","189","1115802","0.0-1.0-188.0","{""Q0"":""Nashville Warbler""}","Nashville Warbler","Wood-Warblers","868"
"","3400","image-multi-choice","190","1120210","0.0-1.0-189.0","{""Q0"":""Northern Waterthrush""}","Northern Waterthrush","Wood-Warblers","862"
"","3044","image-multi-choice","191","1124261","0.0-1.0-190.0","{""Q0"":""Tennessee Warbler""}","Tennessee Warbler","Wood-Warblers","866"
"","3443","image-multi-choice","192","1128714","0.0-1.0-191.0","{""Q0"":""Nashville Warbler""}","Nashville Warbler","Wood-Warblers","868"
"","3022","image-multi-choice","193","1132743","0.0-1.0-192.0","{""Q0"":""Fox Sparrow""}","Fox Sparrow","New World Sparrows and Allies","901"
"","3180","image-multi-choice","194","1136930","0.0-1.0-193.0","{""Q0"":""Townsend's Warbler""}","Blackburnian Warbler","Wood-Warblers","874"
"","3958","image-multi-choice","195","1141894","0.0-1.0-194.0","{""Q0"":""Swamp Sparrow""}","Swamp Sparrow","New World Sparrows and Allies","904"
"","5353","image-multi-choice","196","1148255","0.0-1.0-195.0","{""Q0"":""Magnolia Warbler""}","Townsend's Warbler","Wood-Warblers","881"
"","3863","image-multi-choice","197","1153126","0.0-1.0-196.0","{""Q0"":""Tennessee Warbler""}","Tennessee Warbler","Wood-Warblers","866"
"","2809","image-multi-choice","198","1156944","0.0-1.0-197.0","{""Q0"":""White-crowned Sparrow""}","White-crowned Sparrow","New World Sparrows and Allies","766"
"","2933","image-multi-choice","199","1160886","0.0-1.0-198.0","{""Q0"":""Ovenbird""}","Ovenbird","Wood-Warblers","860"
"","3889","image-multi-choice","200","1165783","0.0-1.0-199.0","{""Q0"":""Lincoln's Sparrow""}","Vesper Sparrow","New World Sparrows and Allies","898"
"","5633","image-multi-choice","201","1172425","0.0-1.0-200.0","{""Q0"":""Magnolia Warbler""}","Blackburnian Warbler","Wood-Warblers","874"
"","4729","image-multi-choice","202","1178162","0.0-1.0-201.0","{""Q0"":""Chipping Sparrow""}","Chipping Sparrow","New World Sparrows and Allies","769"
"","5767","image-multi-choice","203","1184936","0.0-1.0-202.0","{""Q0"":""Swamp Sparrow""}","Vesper Sparrow","New World Sparrows and Allies","898"
"","2659","image-multi-choice","204","1188604","0.0-1.0-203.0","{""Q0"":""Yellow Warbler""}","Yellow Warbler","Wood-Warblers","875"
"","4990","image-multi-choice","205","1194603","0.0-1.0-204.0","{""Q0"":""Nashville Warbler""}","Orange-crowned Warbler","Wood-Warblers","867"
"","3006","image-multi-choice","206","1198617","0.0-1.0-205.0","{""Q0"":""White-throated Sparrow""}","White-throated Sparrow","New World Sparrows and Allies","764"
"","3270","image-multi-choice","207","1202895","0.0-1.0-206.0","{""Q0"":""American Tree Sparrow""}","American Tree Sparrow","New World Sparrows and Allies","894"
"","4431","image-multi-choice","208","1208334","0.0-1.0-207.0","{""Q0"":""Nashville Warbler""}","Orange-crowned Warbler","Wood-Warblers","867"
"","2848","image-multi-choice","209","1212190","0.0-1.0-208.0","{""Q0"":""Black-and-white Warbler""}","Black-and-white Warbler","Wood-Warblers","864"
"","3491","image-multi-choice","210","1216689","0.0-1.0-209.0","{""Q0"":""Lark Sparrow""}","Lark Sparrow","New World Sparrows and Allies","899"
"","4462","image-multi-choice","211","1222160","0.0-1.0-210.0","{""Q0"":""Chipping Sparrow""}","Chipping Sparrow","New World Sparrows and Allies","769"
"","3597","image-multi-choice","212","1226766","0.0-1.0-211.0","{""Q0"":""Orange-crowned Warbler""}","Orange-crowned Warbler","Wood-Warblers","867"
"","2370","image-multi-choice","213","1230142","0.0-1.0-212.0","{""Q0"":""Yellow Warbler""}","Yellow Warbler","Wood-Warblers","875"
"","4069","image-multi-choice","214","1235218","0.0-1.0-213.0","{""Q0"":""American Tree Sparrow""}","American Tree Sparrow","New World Sparrows and Allies","894"
"","3684","image-multi-choice","215","1239911","0.0-1.0-214.0","{""Q0"":""Vesper Sparrow""}","Vesper Sparrow","New World Sparrows and Allies","898"
"","2873","image-multi-choice","216","1243792","0.0-1.0-215.0","{""Q0"":""Ovenbird""}","Ovenbird","Wood-Warblers","860"
"","2892","image-multi-choice","217","1247691","0.0-1.0-216.0","{""Q0"":""Lark Sparrow""}","Lark Sparrow","New World Sparrows and Allies","899"
"","3818","image-multi-choice","218","1252521","0.0-1.0-217.0","{""Q0"":""Lincoln's Sparrow""}","Lincoln's Sparrow","New World Sparrows and Allies","903"
"","5794","image-multi-choice","219","1259323","0.0-1.0-218.0","{""Q0"":""Chipping Sparrow""}","Chipping Sparrow","New World Sparrows and Allies","769"
"","3264","image-multi-choice","220","1263596","0.0-1.0-219.0","{""Q0"":""Lincoln's Sparrow""}","Lincoln's Sparrow","New World Sparrows and Allies","903"
"","4052","image-multi-choice","221","1268656","0.0-1.0-220.0","{""Q0"":""Northern Waterthrush""}","Northern Waterthrush","Wood-Warblers","862"
"","4784","image-multi-choice","222","1274448","0.0-1.0-221.0","{""Q0"":""Chipping Sparrow""}","Chipping Sparrow","New World Sparrows and Allies","769"
"","3852","image-multi-choice","223","1279308","0.0-1.0-222.0","{""Q0"":""Lincoln's Sparrow""}","Lincoln's Sparrow","New World Sparrows and Allies","903"
"","5481","image-multi-choice","224","1285796","0.0-1.0-223.0","{""Q0"":""Townsend's Warbler""}","Blackburnian Warbler","Wood-Warblers","874"
"","5882","image-multi-choice","225","1292686","0.0-1.0-224.0","{""Q0"":""Lincoln's Sparrow""}","Swamp Sparrow","New World Sparrows and Allies","904"
"","3434","image-multi-choice","226","1297129","0.0-1.0-225.0","{""Q0"":""American Tree Sparrow""}","American Tree Sparrow","New World Sparrows and Allies","894"
"","3073","image-multi-choice","227","1301209","0.0-1.0-226.0","{""Q0"":""Fox Sparrow""}","Fox Sparrow","New World Sparrows and Allies","901"
"","3942","image-multi-choice","228","1306159","0.0-1.0-227.0","{""Q0"":""Northern Waterthrush""}","Northern Waterthrush","Wood-Warblers","862"
"","3874","image-multi-choice","229","1311041","0.0-1.0-228.0","{""Q0"":""Nashville Warbler""}","Nashville Warbler","Wood-Warblers","868"
"","3123","image-multi-choice","230","1315172","0.0-1.0-229.0","{""Q0"":""Black-and-white Warbler""}","Black-and-white Warbler","Wood-Warblers","864"
"","3671","image-multi-choice","231","1319852","0.0-1.0-230.0","{""Q0"":""Tennessee Warbler""}","Tennessee Warbler","Wood-Warblers","866"
"","3549","image-multi-choice","232","1324408","0.0-1.0-231.0","{""Q0"":""Townsend's Warbler""}","Townsend's Warbler","Wood-Warblers","881"
"","5208","image-multi-choice","233","1330623","0.0-1.0-232.0","{""Q0"":""Magnolia Warbler""}","Magnolia Warbler","Wood-Warblers","758"
"","2763","image-multi-choice","234","1334393","0.0-1.0-233.0","{""Q0"":""Northern Waterthrush""}","Northern Waterthrush","Wood-Warblers","862"
"","3968","image-multi-choice","235","1339370","0.0-1.0-234.0","{""Q0"":""Orange-crowned Warbler""}","Orange-crowned Warbler","Wood-Warblers","867"
"","2747","image-multi-choice","236","1343126","0.0-1.0-235.0","{""Q0"":""White-throated Sparrow""}","White-throated Sparrow","New World Sparrows and Allies","764"
"","2570","image-multi-choice","237","1346704","0.0-1.0-236.0","{""Q0"":""Yellow Warbler""}","Yellow Warbler","Wood-Warblers","875"
"","2992","image-multi-choice","238","1350705","0.0-1.0-237.0","{""Q0"":""Fox Sparrow""}","Fox Sparrow","New World Sparrows and Allies","901"
"","3347","image-multi-choice","239","1355060","0.0-1.0-238.0","{""Q0"":""Swamp Sparrow""}","Swamp Sparrow","New World Sparrows and Allies","904"
"","3032","image-multi-choice","240","1365644","0.0-1.0-239.0","{""Q0"":""Fox Sparrow""}","Fox Sparrow","New World Sparrows and Allies","901"
"","3926","image-multi-choice","241","1370577","0.0-1.0-240.0","{""Q0"":""Tennessee Warbler""}","Orange-crowned Warbler","Wood-Warblers","867"
"","2757","image-multi-choice","242","1374343","0.0-1.0-241.0","{""Q0"":""White-crowned Sparrow""}","White-crowned Sparrow","New World Sparrows and Allies","766"
"","7193","image-multi-choice","243","1382542","0.0-1.0-242.0","{""Q0"":""Lark Sparrow""}","White-throated Sparrow","New World Sparrows and Allies","764"
"","3638","image-multi-choice","244","1387187","0.0-1.0-243.0","{""Q0"":""Song Sparrow""}","Song Sparrow","New World Sparrows and Allies","902"
"","2941","image-multi-choice","245","1391135","0.0-1.0-244.0","{""Q0"":""Lark Sparrow""}","Lark Sparrow","New World Sparrows and Allies","899"
"","5064","image-multi-choice","246","1397206","0.0-1.0-245.0","{""Q0"":""Vesper Sparrow""}","Vesper Sparrow","New World Sparrows and Allies","898"
"","2753","image-multi-choice","247","1400966","0.0-1.0-246.0","{""Q0"":""Lark Sparrow""}","Lark Sparrow","New World Sparrows and Allies","899"
"","4148","image-multi-choice","248","1406121","0.0-1.0-247.0","{""Q0"":""American Tree Sparrow""}","American Tree Sparrow","New World Sparrows and Allies","894"
"","2954","image-multi-choice","249","1410084","0.0-1.0-248.0","{""Q0"":""Black-and-white Warbler""}","Black-and-white Warbler","Wood-Warblers","864"
"","3382","image-multi-choice","250","1414473","0.0-1.0-249.0","{""Q0"":""Lark Sparrow""}","Lark Sparrow","New World Sparrows and Allies","899"
"","4390","image-multi-choice","251","1419873","0.0-1.0-250.0","{""Q0"":""Nashville Warbler""}","Orange-crowned Warbler","Wood-Warblers","867"
"","3508","image-multi-choice","252","1424391","0.0-1.0-251.0","{""Q0"":""Townsend's Warbler""}","Blackburnian Warbler","Wood-Warblers","874"
"","5008","image-multi-choice","253","1430409","0.0-1.0-252.0","{""Q0"":""Vesper Sparrow""}","Vesper Sparrow","New World Sparrows and Allies","898"
"","4697","image-multi-choice","254","1436116","0.0-1.0-253.0","{""Q0"":""Townsend's Warbler""}","Townsend's Warbler","Wood-Warblers","881"
"","3768","image-multi-choice","255","1440892","0.0-1.0-254.0","{""Q0"":""Swamp Sparrow""}","Swamp Sparrow","New World Sparrows and Allies","904"
"","3775","image-multi-choice","256","1445675","0.0-1.0-255.0","{""Q0"":""Song Sparrow""}","Song Sparrow","New World Sparrows and Allies","902"
"","3874","image-multi-choice","257","1450558","0.0-1.0-256.0","{""Q0"":""Swamp Sparrow""}","Swamp Sparrow","New World Sparrows and Allies","904"
"","2926","image-multi-choice","258","1454493","0.0-1.0-257.0","{""Q0"":""Ovenbird""}","Ovenbird","Wood-Warblers","860"
"","2816","image-multi-choice","259","1458316","0.0-1.0-258.0","{""Q0"":""Black-and-white Warbler""}","Black-and-white Warbler","Wood-Warblers","864"
"","4933","image-multi-choice","260","1464257","0.0-1.0-259.0","{""Q0"":""American Tree Sparrow""}","American Tree Sparrow","New World Sparrows and Allies","894"
"","2461","image-multi-choice","261","1467724","0.0-1.0-260.0","{""Q0"":""Yellow Warbler""}","Yellow Warbler","Wood-Warblers","875"
"","4471","image-multi-choice","262","1473203","0.0-1.0-261.0","{""Q0"":""Vesper Sparrow""}","Vesper Sparrow","New World Sparrows and Allies","898"
"","3882","image-multi-choice","263","1478093","0.0-1.0-262.0","{""Q0"":""Chipping Sparrow""}","Chipping Sparrow","New World Sparrows and Allies","769"
"","3100","image-multi-choice","264","1482203","0.0-1.0-263.0","{""Q0"":""Northern Waterthrush""}","Northern Waterthrush","Wood-Warblers","862"
"","4163","image-multi-choice","265","1487373","0.0-1.0-264.0","{""Q0"":""Fox Sparrow""}","Song Sparrow","New World Sparrows and Allies","902"
"","5395","image-multi-choice","266","1493775","0.0-1.0-265.0","{""Q0"":""Nashville Warbler""}","Nashville Warbler","Wood-Warblers","868"
"","3836","image-multi-choice","267","1498618","0.0-1.0-266.0","{""Q0"":""White-throated Sparrow""}","White-throated Sparrow","New World Sparrows and Allies","764"
"","2626","image-multi-choice","268","1502251","0.0-1.0-267.0","{""Q0"":""White-crowned Sparrow""}","White-crowned Sparrow","New World Sparrows and Allies","766"
"","3194","image-multi-choice","269","1506452","0.0-1.0-268.0","{""Q0"":""American Tree Sparrow""}","American Tree Sparrow","New World Sparrows and Allies","894"
"","3225","image-multi-choice","270","1510686","0.0-1.0-269.0","{""Q0"":""White-throated Sparrow""}","White-throated Sparrow","New World Sparrows and Allies","764"
"","2512","image-multi-choice","271","1514205","0.0-1.0-270.0","{""Q0"":""White-crowned Sparrow""}","White-crowned Sparrow","New World Sparrows and Allies","766"
"","2989","image-multi-choice","272","1518202","0.0-1.0-271.0","{""Q0"":""Yellow Warbler""}","Yellow Warbler","Wood-Warblers","875"
"","3419","image-multi-choice","273","1522629","0.0-1.0-272.0","{""Q0"":""Chipping Sparrow""}","Chipping Sparrow","New World Sparrows and Allies","769"
"","3104","image-multi-choice","274","1526740","0.0-1.0-273.0","{""Q0"":""Ovenbird""}","Ovenbird","Wood-Warblers","860"
"","3189","image-multi-choice","275","1530937","0.0-1.0-274.0","{""Q0"":""Northern Waterthrush""}","Northern Waterthrush","Wood-Warblers","862"
"","2951","image-multi-choice","276","1534898","0.0-1.0-275.0","{""Q0"":""Ovenbird""}","Ovenbird","Wood-Warblers","860"
"","4654","image-multi-choice","277","1540562","0.0-1.0-276.0","{""Q0"":""Black-and-white Warbler""}","Black-and-white Warbler","Wood-Warblers","864"
"","4159","image-multi-choice","278","1545727","0.0-1.0-277.0","{""Q0"":""White-throated Sparrow""}","Chipping Sparrow","New World Sparrows and Allies","769"
"","2973","image-multi-choice","279","1549708","0.0-1.0-278.0","{""Q0"":""Fox Sparrow""}","Fox Sparrow","New World Sparrows and Allies","901"
"","4146","image-multi-choice","280","1554863","0.0-1.0-279.0","{""Q0"":""Magnolia Warbler""}","Magnolia Warbler","Wood-Warblers","758"
"","2524","image-multi-choice","281","1558394","0.0-1.0-280.0","{""Q0"":""White-crowned Sparrow""}","White-crowned Sparrow","New World Sparrows and Allies","766"
"","2773","image-multi-choice","282","1562176","0.0-1.0-281.0","{""Q0"":""White-throated Sparrow""}","White-throated Sparrow","New World Sparrows and Allies","764"
"","3394","image-multi-choice","283","1566578","0.0-1.0-282.0","{""Q0"":""Swamp Sparrow""}","Swamp Sparrow","New World Sparrows and Allies","904"
"","3840","image-multi-choice","284","1571427","0.0-1.0-283.0","{""Q0"":""Magnolia Warbler""}","Magnolia Warbler","Wood-Warblers","758"
"","3825","image-multi-choice","285","1576257","0.0-1.0-284.0","{""Q0"":""Orange-crowned Warbler""}","Orange-crowned Warbler","Wood-Warblers","867"
"","4034","image-multi-choice","286","1581301","0.0-1.0-285.0","{""Q0"":""Magnolia Warbler""}","Magnolia Warbler","Wood-Warblers","758"
"","4588","image-multi-choice","287","1586895","0.0-1.0-286.0","{""Q0"":""Song Sparrow""}","Vesper Sparrow","New World Sparrows and Allies","898"
"","2873","image-multi-choice","288","1590775","0.0-1.0-287.0","{""Q0"":""Northern Waterthrush""}","Northern Waterthrush","Wood-Warblers","862"
"","4614","image-multi-choice","289","1596395","0.0-1.0-288.0","{""Q0"":""Townsend's Warbler""}","Blackburnian Warbler","Wood-Warblers","874"
"","3731","image-multi-choice","290","1601134","0.0-1.0-289.0","{""Q0"":""Tennessee Warbler""}","Tennessee Warbler","Wood-Warblers","866"
"","2929","image-multi-choice","291","1605071","0.0-1.0-290.0","{""Q0"":""Lark Sparrow""}","Lark Sparrow","New World Sparrows and Allies","899"
"","4796","image-multi-choice","292","1610874","0.0-1.0-291.0","{""Q0"":""Black-and-white Warbler""}","Black-and-white Warbler","Wood-Warblers","864"
"","6058","image-multi-choice","293","1617941","0.0-1.0-292.0","{""Q0"":""Song Sparrow""}","Lincoln's Sparrow","New World Sparrows and Allies","903"
"","6384","image-multi-choice","294","1625333","0.0-1.0-293.0","{""Q0"":""Tennessee Warbler""}","Tennessee Warbler","Wood-Warblers","866"
"","2742","image-multi-choice","295","1629082","0.0-1.0-294.0","{""Q0"":""Ovenbird""}","Ovenbird","Wood-Warblers","860"
"","3823","image-multi-choice","296","1633912","0.0-1.0-295.0","{""Q0"":""Vesper Sparrow""}","Vesper Sparrow","New World Sparrows and Allies","898"
"","2790","image-multi-choice","297","1637708","0.0-1.0-296.0","{""Q0"":""Northern Waterthrush""}","Northern Waterthrush","Wood-Warblers","862"
"","3809","image-multi-choice","298","1642523","0.0-1.0-297.0","{""Q0"":""Chipping Sparrow""}","Chipping Sparrow","New World Sparrows and Allies","769"
"","3153","image-multi-choice","299","1646684","0.0-1.0-298.0","{""Q0"":""Lark Sparrow""}","Lark Sparrow","New World Sparrows and Allies","899"
"","2527","image-multi-choice","300","1659969","0.0-1.0-299.0","{""Q0"":""Yellow Warbler""}","Yellow Warbler","Wood-Warblers","875"
"[{""page_index"":0,""viewing_time"":2541}]","2542","instructions","301","1663513","0.0-2.0","","","",""
