[{"view_history":"[{\"page_index\":0,\"viewing_time\":3464}]","rt":3466,"trial_type":"instructions","trial_index":0,"time_elapsed":3469,"internal_node_id":"0.0-0.0"},{"rt":7076,"responses":"{\"Q0\":\"American Tree Sparrow\"}","bird":["American Tree Sparrow"],"family":["New World Sparrows and Allies"],"class":["894"],"trial_type":"image-multi-choice","trial_index":1,"time_elapsed":11623,"internal_node_id":"0.0-1.0-0.0"},{"rt":10436,"responses":"{\"Q0\":\"Tennessee Warbler\"}","bird":["Tennessee Warbler"],"family":["Wood-Warblers"],"class":["866"],"trial_type":"image-multi-choice","trial_index":2,"time_elapsed":23148,"internal_node_id":"0.0-1.0-1.0"},{"rt":5857,"responses":"{\"Q0\":\"White-crowned Sparrow\"}","bird":["White-crowned Sparrow"],"family":["New World Sparrows and Allies"],"class":["766"],"trial_type":"image-multi-choice","trial_index":3,"time_elapsed":30098,"internal_node_id":"0.0-1.0-2.0"},{"rt":14723,"responses":"{\"Q0\":\"American Tree Sparrow\"}","bird":["American Tree Sparrow"],"family":["New World Sparrows and Allies"],"class":["894"],"trial_type":"image-multi-choice","trial_index":4,"time_elapsed":45857,"internal_node_id":"0.0-1.0-3.0"},{"rt":4046,"responses":"{\"Q0\":\"White-crowned Sparrow\"}","bird":["White-crowned Sparrow"],"family":["New World Sparrows and Allies"],"class":["766"],"trial_type":"image-multi-choice","trial_index":5,"time_elapsed":50956,"internal_node_id":"0.0-1.0-4.0"},{"rt":28556,"responses":"{\"Q0\":\"Townsend's Warbler\"}","bird":["Townsend's Warbler"],"family":["Wood-Warblers"],"class":["881"],"trial_type":"image-multi-choice","trial_index":6,"time_elapsed":80583,"internal_node_id":"0.0-1.0-5.0"},{"rt":10647,"responses":"{\"Q0\":\"Swamp Sparrow\"}","bird":["Vesper Sparrow"],"family":["New World Sparrows and Allies"],"class":["898"],"trial_type":"image-multi-choice","trial_index":7,"time_elapsed":92324,"internal_node_id":"0.0-1.0-6.0"},{"rt":64120,"responses":"{\"Q0\":\"Blackburnian Warbler\"}","bird":["Nashville Warbler"],"family":["Wood-Warblers"],"class":["868"],"trial_type":"image-multi-choice","trial_index":8,"time_elapsed":157544,"internal_node_id":"0.0-1.0-7.0"},{"rt":6768,"responses":"{\"Q0\":\"Northern Waterthrush\"}","bird":["Northern Waterthrush"],"family":["Wood-Warblers"],"class":["862"],"trial_type":"image-multi-choice","trial_index":9,"time_elapsed":165400,"internal_node_id":"0.0-1.0-8.0"},{"rt":4018,"responses":"{\"Q0\":\"Ovenbird\"}","bird":["Ovenbird"],"family":["Wood-Warblers"],"class":["860"],"trial_type":"image-multi-choice","trial_index":10,"time_elapsed":170465,"internal_node_id":"0.0-1.0-9.0"},{"rt":7003,"responses":"{\"Q0\":\"Song Sparrow\"}","bird":["Lincoln's Sparrow"],"family":["New World Sparrows and Allies"],"class":["903"],"trial_type":"image-multi-choice","trial_index":11,"time_elapsed":178542,"internal_node_id":"0.0-1.0-10.0"},{"rt":11247,"responses":"{\"Q0\":\"Magnolia Warbler\"}","bird":["Townsend's Warbler"],"family":["Wood-Warblers"],"class":["881"],"trial_type":"image-multi-choice","trial_index":12,"time_elapsed":190852,"internal_node_id":"0.0-1.0-11.0"},{"rt":3819,"responses":"{\"Q0\":\"Fox Sparrow\"}","bird":["Fox Sparrow"],"family":["New World Sparrows and Allies"],"class":["901"],"trial_type":"image-multi-choice","trial_index":13,"time_elapsed":195744,"internal_node_id":"0.0-1.0-12.0"},{"rt":39062,"responses":"{\"Q0\":\"Townsend's Warbler\"}","bird":["Blackburnian Warbler"],"family":["Wood-Warblers"],"class":["874"],"trial_type":"image-multi-choice","trial_index":14,"time_elapsed":235909,"internal_node_id":"0.0-1.0-13.0"},{"rt":8876,"responses":"{\"Q0\":\"Lark Sparrow\"}","bird":["Vesper Sparrow"],"family":["New World Sparrows and Allies"],"class":["898"],"trial_type":"image-multi-choice","trial_index":15,"time_elapsed":245973,"internal_node_id":"0.0-1.0-14.0"},{"rt":4472,"responses":"{\"Q0\":\"Black-and-white Warbler\"}","bird":["Black-and-white Warbler"],"family":["Wood-Warblers"],"class":["864"],"trial_type":"image-multi-choice","trial_index":16,"time_elapsed":251480,"internal_node_id":"0.0-1.0-15.0"},{"rt":18580,"responses":"{\"Q0\":\"Nashville Warbler\"}","bird":["Nashville Warbler"],"family":["Wood-Warblers"],"class":["868"],"trial_type":"image-multi-choice","trial_index":17,"time_elapsed":271121,"internal_node_id":"0.0-1.0-16.0"},{"rt":3870,"responses":"{\"Q0\":\"Lincoln's Sparrow\"}","bird":["Lincoln's Sparrow"],"family":["New World Sparrows and Allies"],"class":["903"],"trial_type":"image-multi-choice","trial_index":18,"time_elapsed":276053,"internal_node_id":"0.0-1.0-17.0"},{"rt":6175,"responses":"{\"Q0\":\"Orange-crowned Warbler\"}","bird":["Nashville Warbler"],"family":["Wood-Warblers"],"class":["868"],"trial_type":"image-multi-choice","trial_index":19,"time_elapsed":283307,"internal_node_id":"0.0-1.0-18.0"},{"rt":4254,"responses":"{\"Q0\":\"Lark Sparrow\"}","bird":["Lark Sparrow"],"family":["New World Sparrows and Allies"],"class":["899"],"trial_type":"image-multi-choice","trial_index":20,"time_elapsed":288715,"internal_node_id":"0.0-1.0-19.0"},{"rt":5450,"responses":"{\"Q0\":\"Magnolia Warbler\"}","bird":["Magnolia Warbler"],"family":["Wood-Warblers"],"class":["758"],"trial_type":"image-multi-choice","trial_index":21,"time_elapsed":295266,"internal_node_id":"0.0-1.0-20.0"},{"rt":8900,"responses":"{\"Q0\":\"Blackburnian Warbler\"}","bird":["Townsend's Warbler"],"family":["Wood-Warblers"],"class":["881"],"trial_type":"image-multi-choice","trial_index":22,"time_elapsed":305261,"internal_node_id":"0.0-1.0-21.0"},{"rt":5968,"responses":"{\"Q0\":\"White-throated Sparrow\"}","bird":["Swamp Sparrow"],"family":["New World Sparrows and Allies"],"class":["904"],"trial_type":"image-multi-choice","trial_index":23,"time_elapsed":312324,"internal_node_id":"0.0-1.0-22.0"},{"rt":5535,"responses":"{\"Q0\":\"Tennessee Warbler\"}","bird":["Tennessee Warbler"],"family":["Wood-Warblers"],"class":["866"],"trial_type":"image-multi-choice","trial_index":24,"time_elapsed":318915,"internal_node_id":"0.0-1.0-23.0"},{"rt":3597,"responses":"{\"Q0\":\"Ovenbird\"}","bird":["Ovenbird"],"family":["Wood-Warblers"],"class":["860"],"trial_type":"image-multi-choice","trial_index":25,"time_elapsed":323566,"internal_node_id":"0.0-1.0-24.0"},{"rt":2854,"responses":"{\"Q0\":\"White-crowned Sparrow\"}","bird":["White-crowned Sparrow"],"family":["New World Sparrows and Allies"],"class":["766"],"trial_type":"image-multi-choice","trial_index":26,"time_elapsed":327483,"internal_node_id":"0.0-1.0-25.0"},{"rt":10392,"responses":"{\"Q0\":\"Chipping Sparrow\"}","bird":["Vesper Sparrow"],"family":["New World Sparrows and Allies"],"class":["898"],"trial_type":"image-multi-choice","trial_index":27,"time_elapsed":338969,"internal_node_id":"0.0-1.0-26.0"},{"rt":7776,"responses":"{\"Q0\":\"Yellow Warbler\"}","bird":["Orange-crowned Warbler"],"family":["Wood-Warblers"],"class":["867"],"trial_type":"image-multi-choice","trial_index":28,"time_elapsed":347841,"internal_node_id":"0.0-1.0-27.0"},{"rt":4366,"responses":"{\"Q0\":\"Chipping Sparrow\"}","bird":["American Tree Sparrow"],"family":["New World Sparrows and Allies"],"class":["894"],"trial_type":"image-multi-choice","trial_index":29,"time_elapsed":353264,"internal_node_id":"0.0-1.0-28.0"},{"rt":5555,"responses":"{\"Q0\":\"Tennessee Warbler\"}","bird":["Tennessee Warbler"],"family":["Wood-Warblers"],"class":["866"],"trial_type":"image-multi-choice","trial_index":30,"time_elapsed":359954,"internal_node_id":"0.0-1.0-29.0"},{"rt":3486,"responses":"{\"Q0\":\"Blackburnian Warbler\"}","bird":["Magnolia Warbler"],"family":["Wood-Warblers"],"class":["758"],"trial_type":"image-multi-choice","trial_index":31,"time_elapsed":364558,"internal_node_id":"0.0-1.0-30.0"},{"rt":6649,"responses":"{\"Q0\":\"Blackburnian Warbler\"}","bird":["Blackburnian Warbler"],"family":["Wood-Warblers"],"class":["874"],"trial_type":"image-multi-choice","trial_index":32,"time_elapsed":372308,"internal_node_id":"0.0-1.0-31.0"},{"rt":18364,"responses":"{\"Q0\":\"Tennessee Warbler\"}","bird":["Tennessee Warbler"],"family":["Wood-Warblers"],"class":["866"],"trial_type":"image-multi-choice","trial_index":33,"time_elapsed":391777,"internal_node_id":"0.0-1.0-32.0"},{"rt":14074,"responses":"{\"Q0\":\"Swamp Sparrow\"}","bird":["Vesper Sparrow"],"family":["New World Sparrows and Allies"],"class":["898"],"trial_type":"image-multi-choice","trial_index":34,"time_elapsed":406943,"internal_node_id":"0.0-1.0-33.0"},{"rt":51082,"responses":"{\"Q0\":\"Nashville Warbler\"}","bird":["Orange-crowned Warbler"],"family":["Wood-Warblers"],"class":["867"],"trial_type":"image-multi-choice","trial_index":35,"time_elapsed":459094,"internal_node_id":"0.0-1.0-34.0"},{"rt":2431,"responses":"{\"Q0\":\"White-crowned Sparrow\"}","bird":["White-crowned Sparrow"],"family":["New World Sparrows and Allies"],"class":["766"],"trial_type":"image-multi-choice","trial_index":36,"time_elapsed":462649,"internal_node_id":"0.0-1.0-35.0"},{"rt":2940,"responses":"{\"Q0\":\"Fox Sparrow\"}","bird":["Fox Sparrow"],"family":["New World Sparrows and Allies"],"class":["901"],"trial_type":"image-multi-choice","trial_index":37,"time_elapsed":466647,"internal_node_id":"0.0-1.0-36.0"},{"rt":5869,"responses":"{\"Q0\":\"Swamp Sparrow\"}","bird":["Swamp Sparrow"],"family":["New World Sparrows and Allies"],"class":["904"],"trial_type":"image-multi-choice","trial_index":38,"time_elapsed":473599,"internal_node_id":"0.0-1.0-37.0"},{"rt":3447,"responses":"{\"Q0\":\"Yellow Warbler\"}","bird":["Yellow Warbler"],"family":["Wood-Warblers"],"class":["875"],"trial_type":"image-multi-choice","trial_index":39,"time_elapsed":478097,"internal_node_id":"0.0-1.0-38.0"},{"rt":18249,"responses":"{\"Q0\":\"Blackburnian Warbler\"}","bird":["Black-and-white Warbler"],"family":["Wood-Warblers"],"class":["864"],"trial_type":"image-multi-choice","trial_index":40,"time_elapsed":497405,"internal_node_id":"0.0-1.0-39.0"},{"rt":3873,"responses":"{\"Q0\":\"Fox Sparrow\"}","bird":["Fox Sparrow"],"family":["New World Sparrows and Allies"],"class":["901"],"trial_type":"image-multi-choice","trial_index":41,"time_elapsed":502345,"internal_node_id":"0.0-1.0-40.0"},{"rt":5821,"responses":"{\"Q0\":\"Northern Waterthrush\"}","bird":["Northern Waterthrush"],"family":["Wood-Warblers"],"class":["862"],"trial_type":"image-multi-choice","trial_index":42,"time_elapsed":509256,"internal_node_id":"0.0-1.0-41.0"},{"rt":3349,"responses":"{\"Q0\":\"Yellow Warbler\"}","bird":["Nashville Warbler"],"family":["Wood-Warblers"],"class":["868"],"trial_type":"image-multi-choice","trial_index":43,"time_elapsed":513687,"internal_node_id":"0.0-1.0-42.0"},{"rt":24131,"responses":"{\"Q0\":\"Blackburnian Warbler\"}","bird":["Blackburnian Warbler"],"family":["Wood-Warblers"],"class":["874"],"trial_type":"image-multi-choice","trial_index":44,"time_elapsed":538909,"internal_node_id":"0.0-1.0-43.0"},{"rt":54774,"responses":"{\"Q0\":\"Nashville Warbler\"}","bird":["Orange-crowned Warbler"],"family":["Wood-Warblers"],"class":["867"],"trial_type":"image-multi-choice","trial_index":45,"time_elapsed":594773,"internal_node_id":"0.0-1.0-44.0"},{"rt":19618,"responses":"{\"Q0\":\"Magnolia Warbler\"}","bird":["Blackburnian Warbler"],"family":["Wood-Warblers"],"class":["874"],"trial_type":"image-multi-choice","trial_index":46,"time_elapsed":615470,"internal_node_id":"0.0-1.0-45.0"},{"rt":26390,"responses":"{\"Q0\":\"Nashville Warbler\"}","bird":["Nashville Warbler"],"family":["Wood-Warblers"],"class":["868"],"trial_type":"image-multi-choice","trial_index":47,"time_elapsed":642929,"internal_node_id":"0.0-1.0-46.0"},{"rt":5194,"responses":"{\"Q0\":\"Northern Waterthrush\"}","bird":["Northern Waterthrush"],"family":["Wood-Warblers"],"class":["862"],"trial_type":"image-multi-choice","trial_index":48,"time_elapsed":649244,"internal_node_id":"0.0-1.0-47.0"},{"rt":2660,"responses":"{\"Q0\":\"Fox Sparrow\"}","bird":["Fox Sparrow"],"family":["New World Sparrows and Allies"],"class":["901"],"trial_type":"image-multi-choice","trial_index":49,"time_elapsed":652949,"internal_node_id":"0.0-1.0-48.0"},{"rt":12460,"responses":"{\"Q0\":\"American Tree Sparrow\"}","bird":["Swamp Sparrow"],"family":["New World Sparrows and Allies"],"class":["904"],"trial_type":"image-multi-choice","trial_index":50,"time_elapsed":666482,"internal_node_id":"0.0-1.0-49.0"},{"rt":6295,"responses":"{\"Q0\":\"Nashville Warbler\"}","bird":["Nashville Warbler"],"family":["Wood-Warblers"],"class":["868"],"trial_type":"image-multi-choice","trial_index":51,"time_elapsed":673839,"internal_node_id":"0.0-1.0-50.0"},{"rt":4361,"responses":"{\"Q0\":\"Black-and-white Warbler\"}","bird":["Black-and-white Warbler"],"family":["Wood-Warblers"],"class":["864"],"trial_type":"image-multi-choice","trial_index":52,"time_elapsed":679288,"internal_node_id":"0.0-1.0-51.0"},{"rt":6830,"responses":"{\"Q0\":\"American Tree Sparrow\"}","bird":["American Tree Sparrow"],"family":["New World Sparrows and Allies"],"class":["894"],"trial_type":"image-multi-choice","trial_index":53,"time_elapsed":687242,"internal_node_id":"0.0-1.0-52.0"},{"rt":2812,"responses":"{\"Q0\":\"Black-and-white Warbler\"}","bird":["Black-and-white Warbler"],"family":["Wood-Warblers"],"class":["864"],"trial_type":"image-multi-choice","trial_index":54,"time_elapsed":691140,"internal_node_id":"0.0-1.0-53.0"},{"rt":8811,"responses":"{\"Q0\":\"Magnolia Warbler\"}","bird":["Townsend's Warbler"],"family":["Wood-Warblers"],"class":["881"],"trial_type":"image-multi-choice","trial_index":55,"time_elapsed":701105,"internal_node_id":"0.0-1.0-54.0"},{"rt":7982,"responses":"{\"Q0\":\"Lark Sparrow\"}","bird":["Lark Sparrow"],"family":["New World Sparrows and Allies"],"class":["899"],"trial_type":"image-multi-choice","trial_index":56,"time_elapsed":710196,"internal_node_id":"0.0-1.0-55.0"},{"rt":4372,"responses":"{\"Q0\":\"Ovenbird\"}","bird":["Ovenbird"],"family":["Wood-Warblers"],"class":["860"],"trial_type":"image-multi-choice","trial_index":57,"time_elapsed":715662,"internal_node_id":"0.0-1.0-56.0"},{"rt":4046,"responses":"{\"Q0\":\"Song Sparrow\"}","bird":["Song Sparrow"],"family":["New World Sparrows and Allies"],"class":["902"],"trial_type":"image-multi-choice","trial_index":58,"time_elapsed":720797,"internal_node_id":"0.0-1.0-57.0"},{"rt":7060,"responses":"{\"Q0\":\"White-throated Sparrow\"}","bird":["Chipping Sparrow"],"family":["New World Sparrows and Allies"],"class":["769"],"trial_type":"image-multi-choice","trial_index":59,"time_elapsed":729277,"internal_node_id":"0.0-1.0-58.0"},{"rt":4800,"responses":"{\"Q0\":\"Black-and-white Warbler\"}","bird":["Black-and-white Warbler"],"family":["Wood-Warblers"],"class":["864"],"trial_type":"image-multi-choice","trial_index":60,"time_elapsed":746939,"internal_node_id":"0.0-1.0-59.0"},{"rt":4539,"responses":"{\"Q0\":\"Chipping Sparrow\"}","bird":["Chipping Sparrow"],"family":["New World Sparrows and Allies"],"class":["769"],"trial_type":"image-multi-choice","trial_index":61,"time_elapsed":752546,"internal_node_id":"0.0-1.0-60.0"},{"rt":3412,"responses":"{\"Q0\":\"White-throated Sparrow\"}","bird":["Swamp Sparrow"],"family":["New World Sparrows and Allies"],"class":["904"],"trial_type":"image-multi-choice","trial_index":62,"time_elapsed":757022,"internal_node_id":"0.0-1.0-61.0"},{"rt":6091,"responses":"{\"Q0\":\"Yellow Warbler\"}","bird":["Nashville Warbler"],"family":["Wood-Warblers"],"class":["868"],"trial_type":"image-multi-choice","trial_index":63,"time_elapsed":764182,"internal_node_id":"0.0-1.0-62.0"},{"rt":4203,"responses":"{\"Q0\":\"Swamp Sparrow\"}","bird":["Lincoln's Sparrow"],"family":["New World Sparrows and Allies"],"class":["903"],"trial_type":"image-multi-choice","trial_index":64,"time_elapsed":769444,"internal_node_id":"0.0-1.0-63.0"},{"rt":4922,"responses":"{\"Q0\":\"Blackburnian Warbler\"}","bird":["Black-and-white Warbler"],"family":["Wood-Warblers"],"class":["864"],"trial_type":"image-multi-choice","trial_index":65,"time_elapsed":775449,"internal_node_id":"0.0-1.0-64.0"},{"rt":3352,"responses":"{\"Q0\":\"Fox Sparrow\"}","bird":["Fox Sparrow"],"family":["New World Sparrows and Allies"],"class":["901"],"trial_type":"image-multi-choice","trial_index":66,"time_elapsed":779884,"internal_node_id":"0.0-1.0-65.0"},{"rt":5326,"responses":"{\"Q0\":\"Magnolia Warbler\"}","bird":["Townsend's Warbler"],"family":["Wood-Warblers"],"class":["881"],"trial_type":"image-multi-choice","trial_index":67,"time_elapsed":786298,"internal_node_id":"0.0-1.0-66.0"},{"rt":28871,"responses":"{\"Q0\":\"Magnolia Warbler\"}","bird":["Yellow Warbler"],"family":["Wood-Warblers"],"class":["875"],"trial_type":"image-multi-choice","trial_index":68,"time_elapsed":816259,"internal_node_id":"0.0-1.0-67.0"},{"rt":14281,"responses":"{\"Q0\":\"Tennessee Warbler\"}","bird":["Tennessee Warbler"],"family":["Wood-Warblers"],"class":["866"],"trial_type":"image-multi-choice","trial_index":69,"time_elapsed":831577,"internal_node_id":"0.0-1.0-68.0"},{"rt":3773,"responses":"{\"Q0\":\"Ovenbird\"}","bird":["Ovenbird"],"family":["Wood-Warblers"],"class":["860"],"trial_type":"image-multi-choice","trial_index":70,"time_elapsed":836476,"internal_node_id":"0.0-1.0-69.0"},{"rt":6580,"responses":"{\"Q0\":\"Blackburnian Warbler\"}","bird":["Townsend's Warbler"],"family":["Wood-Warblers"],"class":["881"],"trial_type":"image-multi-choice","trial_index":71,"time_elapsed":844160,"internal_node_id":"0.0-1.0-70.0"},{"rt":2719,"responses":"{\"Q0\":\"Black-and-white Warbler\"}","bird":["Black-and-white Warbler"],"family":["Wood-Warblers"],"class":["864"],"trial_type":"image-multi-choice","trial_index":72,"time_elapsed":848015,"internal_node_id":"0.0-1.0-71.0"},{"rt":4797,"responses":"{\"Q0\":\"Song Sparrow\"}","bird":["Song Sparrow"],"family":["New World Sparrows and Allies"],"class":["902"],"trial_type":"image-multi-choice","trial_index":73,"time_elapsed":854005,"internal_node_id":"0.0-1.0-72.0"},{"rt":4088,"responses":"{\"Q0\":\"Northern Waterthrush\"}","bird":["Northern Waterthrush"],"family":["Wood-Warblers"],"class":["862"],"trial_type":"image-multi-choice","trial_index":74,"time_elapsed":859154,"internal_node_id":"0.0-1.0-73.0"},{"rt":7823,"responses":"{\"Q0\":\"Swamp Sparrow\"}","bird":["Swamp Sparrow"],"family":["New World Sparrows and Allies"],"class":["904"],"trial_type":"image-multi-choice","trial_index":75,"time_elapsed":868035,"internal_node_id":"0.0-1.0-74.0"},{"rt":2401,"responses":"{\"Q0\":\"White-crowned Sparrow\"}","bird":["White-crowned Sparrow"],"family":["New World Sparrows and Allies"],"class":["766"],"trial_type":"image-multi-choice","trial_index":76,"time_elapsed":871480,"internal_node_id":"0.0-1.0-75.0"},{"rt":2083,"responses":"{\"Q0\":\"White-throated Sparrow\"}","bird":["White-throated Sparrow"],"family":["New World Sparrows and Allies"],"class":["764"],"trial_type":"image-multi-choice","trial_index":77,"time_elapsed":874675,"internal_node_id":"0.0-1.0-76.0"},{"rt":5731,"responses":"{\"Q0\":\"Blackburnian Warbler\"}","bird":["Townsend's Warbler"],"family":["Wood-Warblers"],"class":["881"],"trial_type":"image-multi-choice","trial_index":78,"time_elapsed":881484,"internal_node_id":"0.0-1.0-77.0"},{"rt":6427,"responses":"{\"Q0\":\"Vesper Sparrow\"}","bird":["Vesper Sparrow"],"family":["New World Sparrows and Allies"],"class":["898"],"trial_type":"image-multi-choice","trial_index":79,"time_elapsed":888989,"internal_node_id":"0.0-1.0-78.0"},{"rt":2914,"responses":"{\"Q0\":\"White-throated Sparrow\"}","bird":["White-throated Sparrow"],"family":["New World Sparrows and Allies"],"class":["764"],"trial_type":"image-multi-choice","trial_index":80,"time_elapsed":892973,"internal_node_id":"0.0-1.0-79.0"},{"rt":5969,"responses":"{\"Q0\":\"Ovenbird\"}","bird":["Northern Waterthrush"],"family":["Wood-Warblers"],"class":["862"],"trial_type":"image-multi-choice","trial_index":81,"time_elapsed":900053,"internal_node_id":"0.0-1.0-80.0"},{"rt":2559,"responses":"{\"Q0\":\"Yellow Warbler\"}","bird":["Yellow Warbler"],"family":["Wood-Warblers"],"class":["875"],"trial_type":"image-multi-choice","trial_index":82,"time_elapsed":903751,"internal_node_id":"0.0-1.0-81.0"},{"rt":4255,"responses":"{\"Q0\":\"Orange-crowned Warbler\"}","bird":["Nashville Warbler"],"family":["Wood-Warblers"],"class":["868"],"trial_type":"image-multi-choice","trial_index":83,"time_elapsed":909123,"internal_node_id":"0.0-1.0-82.0"},{"rt":2758,"responses":"{\"Q0\":\"Lark Sparrow\"}","bird":["Lark Sparrow"],"family":["New World Sparrows and Allies"],"class":["899"],"trial_type":"image-multi-choice","trial_index":84,"time_elapsed":913053,"internal_node_id":"0.0-1.0-83.0"},{"rt":3978,"responses":"{\"Q0\":\"Tennessee Warbler\"}","bird":["Orange-crowned Warbler"],"family":["Wood-Warblers"],"class":["867"],"trial_type":"image-multi-choice","trial_index":85,"time_elapsed":918212,"internal_node_id":"0.0-1.0-84.0"},{"rt":6181,"responses":"{\"Q0\":\"Nashville Warbler\"}","bird":["Nashville Warbler"],"family":["Wood-Warblers"],"class":["868"],"trial_type":"image-multi-choice","trial_index":86,"time_elapsed":925493,"internal_node_id":"0.0-1.0-85.0"},{"rt":4696,"responses":"{\"Q0\":\"Black-and-white Warbler\"}","bird":["Black-and-white Warbler"],"family":["Wood-Warblers"],"class":["864"],"trial_type":"image-multi-choice","trial_index":87,"time_elapsed":931270,"internal_node_id":"0.0-1.0-86.0"},{"rt":9468,"responses":"{\"Q0\":\"Nashville Warbler\"}","bird":["Nashville Warbler"],"family":["Wood-Warblers"],"class":["868"],"trial_type":"image-multi-choice","trial_index":88,"time_elapsed":941793,"internal_node_id":"0.0-1.0-87.0"},{"rt":2690,"responses":"{\"Q0\":\"Ovenbird\"}","bird":["Ovenbird"],"family":["Wood-Warblers"],"class":["860"],"trial_type":"image-multi-choice","trial_index":89,"time_elapsed":945529,"internal_node_id":"0.0-1.0-88.0"},{"rt":5938,"responses":"{\"Q0\":\"Black-and-white Warbler\"}","bird":["Black-and-white Warbler"],"family":["Wood-Warblers"],"class":["864"],"trial_type":"image-multi-choice","trial_index":90,"time_elapsed":952526,"internal_node_id":"0.0-1.0-89.0"},{"rt":4023,"responses":"{\"Q0\":\"Chipping Sparrow\"}","bird":["Chipping Sparrow"],"family":["New World Sparrows and Allies"],"class":["769"],"trial_type":"image-multi-choice","trial_index":91,"time_elapsed":957607,"internal_node_id":"0.0-1.0-90.0"},{"rt":3442,"responses":"{\"Q0\":\"Nashville Warbler\"}","bird":["Tennessee Warbler"],"family":["Wood-Warblers"],"class":["866"],"trial_type":"image-multi-choice","trial_index":92,"time_elapsed":962106,"internal_node_id":"0.0-1.0-91.0"},{"rt":2458,"responses":"{\"Q0\":\"White-throated Sparrow\"}","bird":["White-throated Sparrow"],"family":["New World Sparrows and Allies"],"class":["764"],"trial_type":"image-multi-choice","trial_index":93,"time_elapsed":965706,"internal_node_id":"0.0-1.0-92.0"},{"rt":4126,"responses":"{\"Q0\":\"Song Sparrow\"}","bird":["Song Sparrow"],"family":["New World Sparrows and Allies"],"class":["902"],"trial_type":"image-multi-choice","trial_index":94,"time_elapsed":970940,"internal_node_id":"0.0-1.0-93.0"},{"rt":3393,"responses":"{\"Q0\":\"Blackburnian Warbler\"}","bird":["Blackburnian Warbler"],"family":["Wood-Warblers"],"class":["874"],"trial_type":"image-multi-choice","trial_index":95,"time_elapsed":975461,"internal_node_id":"0.0-1.0-94.0"},{"rt":4051,"responses":"{\"Q0\":\"Chipping Sparrow\"}","bird":["American Tree Sparrow"],"family":["New World Sparrows and Allies"],"class":["894"],"trial_type":"image-multi-choice","trial_index":96,"time_elapsed":980647,"internal_node_id":"0.0-1.0-95.0"},{"rt":1971,"responses":"{\"Q0\":\"White-throated Sparrow\"}","bird":["White-throated Sparrow"],"family":["New World Sparrows and Allies"],"class":["764"],"trial_type":"image-multi-choice","trial_index":97,"time_elapsed":983736,"internal_node_id":"0.0-1.0-96.0"},{"rt":4856,"responses":"{\"Q0\":\"Orange-crowned Warbler\"}","bird":["Orange-crowned Warbler"],"family":["Wood-Warblers"],"class":["867"],"trial_type":"image-multi-choice","trial_index":98,"time_elapsed":989682,"internal_node_id":"0.0-1.0-97.0"},{"rt":1812,"responses":"{\"Q0\":\"Yellow Warbler\"}","bird":["Yellow Warbler"],"family":["Wood-Warblers"],"class":["875"],"trial_type":"image-multi-choice","trial_index":99,"time_elapsed":992557,"internal_node_id":"0.0-1.0-98.0"},{"rt":2804,"responses":"{\"Q0\":\"Fox Sparrow\"}","bird":["Fox Sparrow"],"family":["New World Sparrows and Allies"],"class":["901"],"trial_type":"image-multi-choice","trial_index":100,"time_elapsed":996417,"internal_node_id":"0.0-1.0-99.0"},{"rt":5166,"responses":"{\"Q0\":\"Chipping Sparrow\"}","bird":["Chipping Sparrow"],"family":["New World Sparrows and Allies"],"class":["769"],"trial_type":"image-multi-choice","trial_index":101,"time_elapsed":1002630,"internal_node_id":"0.0-1.0-100.0"},{"rt":4041,"responses":"{\"Q0\":\"Northern Waterthrush\"}","bird":["Northern Waterthrush"],"family":["Wood-Warblers"],"class":["862"],"trial_type":"image-multi-choice","trial_index":102,"time_elapsed":1007763,"internal_node_id":"0.0-1.0-101.0"},{"rt":6034,"responses":"{\"Q0\":\"White-throated Sparrow\"}","bird":["Swamp Sparrow"],"family":["New World Sparrows and Allies"],"class":["904"],"trial_type":"image-multi-choice","trial_index":103,"time_elapsed":1014919,"internal_node_id":"0.0-1.0-102.0"},{"rt":4020,"responses":"{\"Q0\":\"Ovenbird\"}","bird":["Northern Waterthrush"],"family":["Wood-Warblers"],"class":["862"],"trial_type":"image-multi-choice","trial_index":104,"time_elapsed":1020020,"internal_node_id":"0.0-1.0-103.0"},{"rt":3331,"responses":"{\"Q0\":\"Yellow Warbler\"}","bird":["Yellow Warbler"],"family":["Wood-Warblers"],"class":["875"],"trial_type":"image-multi-choice","trial_index":105,"time_elapsed":1024464,"internal_node_id":"0.0-1.0-104.0"},{"rt":7476,"responses":"{\"Q0\":\"Magnolia Warbler\"}","bird":["Magnolia Warbler"],"family":["Wood-Warblers"],"class":["758"],"trial_type":"image-multi-choice","trial_index":106,"time_elapsed":1033028,"internal_node_id":"0.0-1.0-105.0"},{"rt":6455,"responses":"{\"Q0\":\"Blackburnian Warbler\"}","bird":["Townsend's Warbler"],"family":["Wood-Warblers"],"class":["881"],"trial_type":"image-multi-choice","trial_index":107,"time_elapsed":1040571,"internal_node_id":"0.0-1.0-106.0"},{"rt":2731,"responses":"{\"Q0\":\"White-throated Sparrow\"}","bird":["Swamp Sparrow"],"family":["New World Sparrows and Allies"],"class":["904"],"trial_type":"image-multi-choice","trial_index":108,"time_elapsed":1044438,"internal_node_id":"0.0-1.0-107.0"},{"rt":2446,"responses":"{\"Q0\":\"Fox Sparrow\"}","bird":["Fox Sparrow"],"family":["New World Sparrows and Allies"],"class":["901"],"trial_type":"image-multi-choice","trial_index":109,"time_elapsed":1047993,"internal_node_id":"0.0-1.0-108.0"},{"rt":4531,"responses":"{\"Q0\":\"Magnolia Warbler\"}","bird":["Yellow Warbler"],"family":["Wood-Warblers"],"class":["875"],"trial_type":"image-multi-choice","trial_index":110,"time_elapsed":1053611,"internal_node_id":"0.0-1.0-109.0"},{"rt":4718,"responses":"{\"Q0\":\"Lincoln's Sparrow\"}","bird":["Lincoln's Sparrow"],"family":["New World Sparrows and Allies"],"class":["903"],"trial_type":"image-multi-choice","trial_index":111,"time_elapsed":1059533,"internal_node_id":"0.0-1.0-110.0"},{"rt":4490,"responses":"{\"Q0\":\"Blackburnian Warbler\"}","bird":["Townsend's Warbler"],"family":["Wood-Warblers"],"class":["881"],"trial_type":"image-multi-choice","trial_index":112,"time_elapsed":1065094,"internal_node_id":"0.0-1.0-111.0"},{"rt":2053,"responses":"{\"Q0\":\"White-crowned Sparrow\"}","bird":["White-crowned Sparrow"],"family":["New World Sparrows and Allies"],"class":["766"],"trial_type":"image-multi-choice","trial_index":113,"time_elapsed":1068266,"internal_node_id":"0.0-1.0-112.0"},{"rt":8926,"responses":"{\"Q0\":\"Townsend's Warbler\"}","bird":["Blackburnian Warbler"],"family":["Wood-Warblers"],"class":["874"],"trial_type":"image-multi-choice","trial_index":114,"time_elapsed":1078241,"internal_node_id":"0.0-1.0-113.0"},{"rt":7289,"responses":"{\"Q0\":\"Orange-crowned Warbler\"}","bird":["Nashville Warbler"],"family":["Wood-Warblers"],"class":["868"],"trial_type":"image-multi-choice","trial_index":115,"time_elapsed":1086570,"internal_node_id":"0.0-1.0-114.0"},{"rt":10001,"responses":"{\"Q0\":\"Tennessee Warbler\"}","bird":["Tennessee Warbler"],"family":["Wood-Warblers"],"class":["866"],"trial_type":"image-multi-choice","trial_index":116,"time_elapsed":1097680,"internal_node_id":"0.0-1.0-115.0"},{"rt":8054,"responses":"{\"Q0\":\"Lincoln's Sparrow\"}","bird":["Vesper Sparrow"],"family":["New World Sparrows and Allies"],"class":["898"],"trial_type":"image-multi-choice","trial_index":117,"time_elapsed":1106845,"internal_node_id":"0.0-1.0-116.0"},{"rt":2841,"responses":"{\"Q0\":\"White-throated Sparrow\"}","bird":["Swamp Sparrow"],"family":["New World Sparrows and Allies"],"class":["904"],"trial_type":"image-multi-choice","trial_index":118,"time_elapsed":1110789,"internal_node_id":"0.0-1.0-117.0"},{"rt":2113,"responses":"{\"Q0\":\"White-crowned Sparrow\"}","bird":["White-crowned Sparrow"],"family":["New World Sparrows and Allies"],"class":["766"],"trial_type":"image-multi-choice","trial_index":119,"time_elapsed":1114016,"internal_node_id":"0.0-1.0-118.0"},{"rt":7411,"responses":"{\"Q0\":\"Townsend's Warbler\"}","bird":["Blackburnian Warbler"],"family":["Wood-Warblers"],"class":["874"],"trial_type":"image-multi-choice","trial_index":120,"time_elapsed":1125593,"internal_node_id":"0.0-1.0-119.0"},{"rt":3016,"responses":"{\"Q0\":\"Fox Sparrow\"}","bird":["Fox Sparrow"],"family":["New World Sparrows and Allies"],"class":["901"],"trial_type":"image-multi-choice","trial_index":121,"time_elapsed":1129668,"internal_node_id":"0.0-1.0-120.0"},{"rt":6235,"responses":"{\"Q0\":\"Lark Sparrow\"}","bird":["Vesper Sparrow"],"family":["New World Sparrows and Allies"],"class":["898"],"trial_type":"image-multi-choice","trial_index":122,"time_elapsed":1136952,"internal_node_id":"0.0-1.0-121.0"},{"rt":2528,"responses":"{\"Q0\":\"Yellow Warbler\"}","bird":["Yellow Warbler"],"family":["Wood-Warblers"],"class":["875"],"trial_type":"image-multi-choice","trial_index":123,"time_elapsed":1140529,"internal_node_id":"0.0-1.0-122.0"},{"rt":5310,"responses":"{\"Q0\":\"Song Sparrow\"}","bird":["Song Sparrow"],"family":["New World Sparrows and Allies"],"class":["902"],"trial_type":"image-multi-choice","trial_index":124,"time_elapsed":1146900,"internal_node_id":"0.0-1.0-123.0"},{"rt":5401,"responses":"{\"Q0\":\"Townsend's Warbler\"}","bird":["Townsend's Warbler"],"family":["Wood-Warblers"],"class":["881"],"trial_type":"image-multi-choice","trial_index":125,"time_elapsed":1153402,"internal_node_id":"0.0-1.0-124.0"},{"rt":2040,"responses":"{\"Q0\":\"White-crowned Sparrow\"}","bird":["White-crowned Sparrow"],"family":["New World Sparrows and Allies"],"class":["766"],"trial_type":"image-multi-choice","trial_index":126,"time_elapsed":1156540,"internal_node_id":"0.0-1.0-125.0"},{"rt":2948,"responses":"{\"Q0\":\"Song Sparrow\"}","bird":["Song Sparrow"],"family":["New World Sparrows and Allies"],"class":["902"],"trial_type":"image-multi-choice","trial_index":127,"time_elapsed":1160569,"internal_node_id":"0.0-1.0-126.0"},{"rt":4474,"responses":"{\"Q0\":\"Ovenbird\"}","bird":["Ovenbird"],"family":["Wood-Warblers"],"class":["860"],"trial_type":"image-multi-choice","trial_index":128,"time_elapsed":1166179,"internal_node_id":"0.0-1.0-127.0"},{"rt":3722,"responses":"{\"Q0\":\"Magnolia Warbler\"}","bird":["Magnolia Warbler"],"family":["Wood-Warblers"],"class":["758"],"trial_type":"image-multi-choice","trial_index":129,"time_elapsed":1171012,"internal_node_id":"0.0-1.0-128.0"},{"rt":6136,"responses":"{\"Q0\":\"Swamp Sparrow\"}","bird":["Swamp Sparrow"],"family":["New World Sparrows and Allies"],"class":["904"],"trial_type":"image-multi-choice","trial_index":130,"time_elapsed":1178268,"internal_node_id":"0.0-1.0-129.0"},{"rt":2981,"responses":"{\"Q0\":\"Lark Sparrow\"}","bird":["Lark Sparrow"],"family":["New World Sparrows and Allies"],"class":["899"],"trial_type":"image-multi-choice","trial_index":131,"time_elapsed":1182361,"internal_node_id":"0.0-1.0-130.0"},{"rt":5516,"responses":"{\"Q0\":\"Magnolia Warbler\"}","bird":["Magnolia Warbler"],"family":["Wood-Warblers"],"class":["758"],"trial_type":"image-multi-choice","trial_index":132,"time_elapsed":1188959,"internal_node_id":"0.0-1.0-131.0"},{"rt":2287,"responses":"{\"Q0\":\"White-throated Sparrow\"}","bird":["White-throated Sparrow"],"family":["New World Sparrows and Allies"],"class":["764"],"trial_type":"image-multi-choice","trial_index":133,"time_elapsed":1192371,"internal_node_id":"0.0-1.0-132.0"},{"rt":6311,"responses":"{\"Q0\":\"Blackburnian Warbler\"}","bird":["Magnolia Warbler"],"family":["Wood-Warblers"],"class":["758"],"trial_type":"image-multi-choice","trial_index":134,"time_elapsed":1199755,"internal_node_id":"0.0-1.0-133.0"},{"rt":2302,"responses":"{\"Q0\":\"Yellow Warbler\"}","bird":["Yellow Warbler"],"family":["Wood-Warblers"],"class":["875"],"trial_type":"image-multi-choice","trial_index":135,"time_elapsed":1203140,"internal_node_id":"0.0-1.0-134.0"},{"rt":4363,"responses":"{\"Q0\":\"Tennessee Warbler\"}","bird":["Tennessee Warbler"],"family":["Wood-Warblers"],"class":["866"],"trial_type":"image-multi-choice","trial_index":136,"time_elapsed":1208606,"internal_node_id":"0.0-1.0-135.0"},{"rt":3397,"responses":"{\"Q0\":\"Ovenbird\"}","bird":["Ovenbird"],"family":["Wood-Warblers"],"class":["860"],"trial_type":"image-multi-choice","trial_index":137,"time_elapsed":1213076,"internal_node_id":"0.0-1.0-136.0"},{"rt":21531,"responses":"{\"Q0\":\"Blackburnian Warbler\"}","bird":["Black-and-white Warbler"],"family":["Wood-Warblers"],"class":["864"],"trial_type":"image-multi-choice","trial_index":138,"time_elapsed":1235659,"internal_node_id":"0.0-1.0-137.0"},{"rt":3564,"responses":"{\"Q0\":\"Chipping Sparrow\"}","bird":["Chipping Sparrow"],"family":["New World Sparrows and Allies"],"class":["769"],"trial_type":"image-multi-choice","trial_index":139,"time_elapsed":1240265,"internal_node_id":"0.0-1.0-138.0"},{"rt":3231,"responses":"{\"Q0\":\"Northern Waterthrush\"}","bird":["Northern Waterthrush"],"family":["Wood-Warblers"],"class":["862"],"trial_type":"image-multi-choice","trial_index":140,"time_elapsed":1244579,"internal_node_id":"0.0-1.0-139.0"},{"rt":5289,"responses":"{\"Q0\":\"Lincoln's Sparrow\"}","bird":["Vesper Sparrow"],"family":["New World Sparrows and Allies"],"class":["898"],"trial_type":"image-multi-choice","trial_index":141,"time_elapsed":1250960,"internal_node_id":"0.0-1.0-140.0"},{"rt":2464,"responses":"{\"Q0\":\"White-throated Sparrow\"}","bird":["White-throated Sparrow"],"family":["New World Sparrows and Allies"],"class":["764"],"trial_type":"image-multi-choice","trial_index":142,"time_elapsed":1254506,"internal_node_id":"0.0-1.0-141.0"},{"rt":4159,"responses":"{\"Q0\":\"Magnolia Warbler\"}","bird":["Magnolia Warbler"],"family":["Wood-Warblers"],"class":["758"],"trial_type":"image-multi-choice","trial_index":143,"time_elapsed":1259741,"internal_node_id":"0.0-1.0-142.0"},{"rt":7273,"responses":"{\"Q0\":\"Blackburnian Warbler\"}","bird":["Blackburnian Warbler"],"family":["Wood-Warblers"],"class":["874"],"trial_type":"image-multi-choice","trial_index":144,"time_elapsed":1268191,"internal_node_id":"0.0-1.0-143.0"},{"rt":3700,"responses":"{\"Q0\":\"Lark Sparrow\"}","bird":["Lark Sparrow"],"family":["New World Sparrows and Allies"],"class":["899"],"trial_type":"image-multi-choice","trial_index":145,"time_elapsed":1272980,"internal_node_id":"0.0-1.0-144.0"},{"rt":7064,"responses":"{\"Q0\":\"Fox Sparrow\"}","bird":["Song Sparrow"],"family":["New World Sparrows and Allies"],"class":["902"],"trial_type":"image-multi-choice","trial_index":146,"time_elapsed":1281094,"internal_node_id":"0.0-1.0-145.0"},{"rt":2306,"responses":"{\"Q0\":\"White-crowned Sparrow\"}","bird":["White-crowned Sparrow"],"family":["New World Sparrows and Allies"],"class":["766"],"trial_type":"image-multi-choice","trial_index":147,"time_elapsed":1284439,"internal_node_id":"0.0-1.0-146.0"},{"rt":6544,"responses":"{\"Q0\":\"Chipping Sparrow\"}","bird":["Chipping Sparrow"],"family":["New World Sparrows and Allies"],"class":["769"],"trial_type":"image-multi-choice","trial_index":148,"time_elapsed":1292044,"internal_node_id":"0.0-1.0-147.0"},{"rt":6845,"responses":"{\"Q0\":\"American Tree Sparrow\"}","bird":["Swamp Sparrow"],"family":["New World Sparrows and Allies"],"class":["904"],"trial_type":"image-multi-choice","trial_index":149,"time_elapsed":1299946,"internal_node_id":"0.0-1.0-148.0"},{"rt":2871,"responses":"{\"Q0\":\"Fox Sparrow\"}","bird":["Fox Sparrow"],"family":["New World Sparrows and Allies"],"class":["901"],"trial_type":"image-multi-choice","trial_index":150,"time_elapsed":1303874,"internal_node_id":"0.0-1.0-149.0"},{"rt":2023,"responses":"{\"Q0\":\"Yellow Warbler\"}","bird":["Yellow Warbler"],"family":["Wood-Warblers"],"class":["875"],"trial_type":"image-multi-choice","trial_index":151,"time_elapsed":1307004,"internal_node_id":"0.0-1.0-150.0"},{"rt":2080,"responses":"{\"Q0\":\"White-crowned Sparrow\"}","bird":["White-crowned Sparrow"],"family":["New World Sparrows and Allies"],"class":["766"],"trial_type":"image-multi-choice","trial_index":152,"time_elapsed":1310214,"internal_node_id":"0.0-1.0-151.0"},{"rt":3654,"responses":"{\"Q0\":\"Fox Sparrow\"}","bird":["Song Sparrow"],"family":["New World Sparrows and Allies"],"class":["902"],"trial_type":"image-multi-choice","trial_index":153,"time_elapsed":1314997,"internal_node_id":"0.0-1.0-152.0"},{"rt":7434,"responses":"{\"Q0\":\"Northern Waterthrush\"}","bird":["Northern Waterthrush"],"family":["Wood-Warblers"],"class":["862"],"trial_type":"image-multi-choice","trial_index":154,"time_elapsed":1323563,"internal_node_id":"0.0-1.0-153.0"},{"rt":2172,"responses":"{\"Q0\":\"White-crowned Sparrow\"}","bird":["White-crowned Sparrow"],"family":["New World Sparrows and Allies"],"class":["766"],"trial_type":"image-multi-choice","trial_index":155,"time_elapsed":1326856,"internal_node_id":"0.0-1.0-154.0"},{"rt":2150,"responses":"{\"Q0\":\"Yellow Warbler\"}","bird":["Yellow Warbler"],"family":["Wood-Warblers"],"class":["875"],"trial_type":"image-multi-choice","trial_index":156,"time_elapsed":1330085,"internal_node_id":"0.0-1.0-155.0"},{"rt":2143,"responses":"{\"Q0\":\"White-throated Sparrow\"}","bird":["White-throated Sparrow"],"family":["New World Sparrows and Allies"],"class":["764"],"trial_type":"image-multi-choice","trial_index":157,"time_elapsed":1333371,"internal_node_id":"0.0-1.0-156.0"},{"rt":1888,"responses":"{\"Q0\":\"White-crowned Sparrow\"}","bird":["White-crowned Sparrow"],"family":["New World Sparrows and Allies"],"class":["766"],"trial_type":"image-multi-choice","trial_index":158,"time_elapsed":1336311,"internal_node_id":"0.0-1.0-157.0"},{"rt":5096,"responses":"{\"Q0\":\"Blackburnian Warbler\"}","bird":["Townsend's Warbler"],"family":["Wood-Warblers"],"class":["881"],"trial_type":"image-multi-choice","trial_index":159,"time_elapsed":1342584,"internal_node_id":"0.0-1.0-158.0"},{"rt":8050,"responses":"{\"Q0\":\"Tennessee Warbler\"}","bird":["Tennessee Warbler"],"family":["Wood-Warblers"],"class":["866"],"trial_type":"image-multi-choice","trial_index":160,"time_elapsed":1351676,"internal_node_id":"0.0-1.0-159.0"},{"rt":1889,"responses":"{\"Q0\":\"White-throated Sparrow\"}","bird":["White-throated Sparrow"],"family":["New World Sparrows and Allies"],"class":["764"],"trial_type":"image-multi-choice","trial_index":161,"time_elapsed":1354704,"internal_node_id":"0.0-1.0-160.0"},{"rt":2338,"responses":"{\"Q0\":\"Fox Sparrow\"}","bird":["Fox Sparrow"],"family":["New World Sparrows and Allies"],"class":["901"],"trial_type":"image-multi-choice","trial_index":162,"time_elapsed":1358131,"internal_node_id":"0.0-1.0-161.0"},{"rt":3601,"responses":"{\"Q0\":\"Song Sparrow\"}","bird":["Song Sparrow"],"family":["New World Sparrows and Allies"],"class":["902"],"trial_type":"image-multi-choice","trial_index":163,"time_elapsed":1362825,"internal_node_id":"0.0-1.0-162.0"},{"rt":2346,"responses":"{\"Q0\":\"White-crowned Sparrow\"}","bird":["White-crowned Sparrow"],"family":["New World Sparrows and Allies"],"class":["766"],"trial_type":"image-multi-choice","trial_index":164,"time_elapsed":1366239,"internal_node_id":"0.0-1.0-163.0"},{"rt":13039,"responses":"{\"Q0\":\"Swamp Sparrow\"}","bird":["Song Sparrow"],"family":["New World Sparrows and Allies"],"class":["902"],"trial_type":"image-multi-choice","trial_index":165,"time_elapsed":1380360,"internal_node_id":"0.0-1.0-164.0"},{"rt":3459,"responses":"{\"Q0\":\"Chipping Sparrow\"}","bird":["American Tree Sparrow"],"family":["New World Sparrows and Allies"],"class":["894"],"trial_type":"image-multi-choice","trial_index":166,"time_elapsed":1384960,"internal_node_id":"0.0-1.0-165.0"},{"rt":4251,"responses":"{\"Q0\":\"Orange-crowned Warbler\"}","bird":["Orange-crowned Warbler"],"family":["Wood-Warblers"],"class":["867"],"trial_type":"image-multi-choice","trial_index":167,"time_elapsed":1390338,"internal_node_id":"0.0-1.0-166.0"},{"rt":3154,"responses":"{\"Q0\":\"Lincoln's Sparrow\"}","bird":["Lincoln's Sparrow"],"family":["New World Sparrows and Allies"],"class":["903"],"trial_type":"image-multi-choice","trial_index":168,"time_elapsed":1394798,"internal_node_id":"0.0-1.0-167.0"},{"rt":4830,"responses":"{\"Q0\":\"Townsend's Warbler\"}","bird":["Blackburnian Warbler"],"family":["Wood-Warblers"],"class":["874"],"trial_type":"image-multi-choice","trial_index":169,"time_elapsed":1400719,"internal_node_id":"0.0-1.0-168.0"},{"rt":2080,"responses":"{\"Q0\":\"White-throated Sparrow\"}","bird":["White-throated Sparrow"],"family":["New World Sparrows and Allies"],"class":["764"],"trial_type":"image-multi-choice","trial_index":170,"time_elapsed":1403890,"internal_node_id":"0.0-1.0-169.0"},{"rt":2824,"responses":"{\"Q0\":\"Fox Sparrow\"}","bird":["Fox Sparrow"],"family":["New World Sparrows and Allies"],"class":["901"],"trial_type":"image-multi-choice","trial_index":171,"time_elapsed":1407776,"internal_node_id":"0.0-1.0-170.0"},{"rt":3417,"responses":"{\"Q0\":\"Chipping Sparrow\"}","bird":["Chipping Sparrow"],"family":["New World Sparrows and Allies"],"class":["769"],"trial_type":"image-multi-choice","trial_index":172,"time_elapsed":1412366,"internal_node_id":"0.0-1.0-171.0"},{"rt":11007,"responses":"{\"Q0\":\"Swamp Sparrow\"}","bird":["Swamp Sparrow"],"family":["New World Sparrows and Allies"],"class":["904"],"trial_type":"image-multi-choice","trial_index":173,"time_elapsed":1424417,"internal_node_id":"0.0-1.0-172.0"},{"rt":4391,"responses":"{\"Q0\":\"Lincoln's Sparrow\"}","bird":["Lincoln's Sparrow"],"family":["New World Sparrows and Allies"],"class":["903"],"trial_type":"image-multi-choice","trial_index":174,"time_elapsed":1429854,"internal_node_id":"0.0-1.0-173.0"},{"rt":3863,"responses":"{\"Q0\":\"Song Sparrow\"}","bird":["Swamp Sparrow"],"family":["New World Sparrows and Allies"],"class":["904"],"trial_type":"image-multi-choice","trial_index":175,"time_elapsed":1434769,"internal_node_id":"0.0-1.0-174.0"},{"rt":4258,"responses":"{\"Q0\":\"Blackburnian Warbler\"}","bird":["Townsend's Warbler"],"family":["Wood-Warblers"],"class":["881"],"trial_type":"image-multi-choice","trial_index":176,"time_elapsed":1440082,"internal_node_id":"0.0-1.0-175.0"},{"rt":5997,"responses":"{\"Q0\":\"American Tree Sparrow\"}","bird":["American Tree Sparrow"],"family":["New World Sparrows and Allies"],"class":["894"],"trial_type":"image-multi-choice","trial_index":177,"time_elapsed":1447137,"internal_node_id":"0.0-1.0-176.0"},{"rt":3361,"responses":"{\"Q0\":\"Fox Sparrow\"}","bird":["Fox Sparrow"],"family":["New World Sparrows and Allies"],"class":["901"],"trial_type":"image-multi-choice","trial_index":178,"time_elapsed":1451576,"internal_node_id":"0.0-1.0-177.0"},{"rt":7196,"responses":"{\"Q0\":\"Song Sparrow\"}","bird":["Lincoln's Sparrow"],"family":["New World Sparrows and Allies"],"class":["903"],"trial_type":"image-multi-choice","trial_index":179,"time_elapsed":1459906,"internal_node_id":"0.0-1.0-178.0"},{"rt":3525,"responses":"{\"Q0\":\"Magnolia Warbler\"}","bird":["Magnolia Warbler"],"family":["Wood-Warblers"],"class":["758"],"trial_type":"image-multi-choice","trial_index":180,"time_elapsed":1469686,"internal_node_id":"0.0-1.0-179.0"},{"rt":10868,"responses":"{\"Q0\":\"Tennessee Warbler\"}","bird":["Orange-crowned Warbler"],"family":["Wood-Warblers"],"class":["867"],"trial_type":"image-multi-choice","trial_index":181,"time_elapsed":1481662,"internal_node_id":"0.0-1.0-180.0"},{"rt":7034,"responses":"{\"Q0\":\"Tennessee Warbler\"}","bird":["Tennessee Warbler"],"family":["Wood-Warblers"],"class":["866"],"trial_type":"image-multi-choice","trial_index":182,"time_elapsed":1489774,"internal_node_id":"0.0-1.0-181.0"},{"rt":4818,"responses":"{\"Q0\":\"Vesper Sparrow\"}","bird":["Vesper Sparrow"],"family":["New World Sparrows and Allies"],"class":["898"],"trial_type":"image-multi-choice","trial_index":183,"time_elapsed":1495636,"internal_node_id":"0.0-1.0-182.0"},{"rt":5972,"responses":"{\"Q0\":\"Blackburnian Warbler\"}","bird":["Blackburnian Warbler"],"family":["Wood-Warblers"],"class":["874"],"trial_type":"image-multi-choice","trial_index":184,"time_elapsed":1502669,"internal_node_id":"0.0-1.0-183.0"},{"rt":4229,"responses":"{\"Q0\":\"Lincoln's Sparrow\"}","bird":["Lincoln's Sparrow"],"family":["New World Sparrows and Allies"],"class":["903"],"trial_type":"image-multi-choice","trial_index":185,"time_elapsed":1507966,"internal_node_id":"0.0-1.0-184.0"},{"rt":4406,"responses":"{\"Q0\":\"Townsend's Warbler\"}","bird":["Townsend's Warbler"],"family":["Wood-Warblers"],"class":["881"],"trial_type":"image-multi-choice","trial_index":186,"time_elapsed":1513466,"internal_node_id":"0.0-1.0-185.0"},{"rt":4348,"responses":"{\"Q0\":\"Ovenbird\"}","bird":["Ovenbird"],"family":["Wood-Warblers"],"class":["860"],"trial_type":"image-multi-choice","trial_index":187,"time_elapsed":1518921,"internal_node_id":"0.0-1.0-186.0"},{"rt":4440,"responses":"{\"Q0\":\"Yellow Warbler\"}","bird":["Orange-crowned Warbler"],"family":["Wood-Warblers"],"class":["867"],"trial_type":"image-multi-choice","trial_index":188,"time_elapsed":1524496,"internal_node_id":"0.0-1.0-187.0"},{"rt":3282,"responses":"{\"Q0\":\"Chipping Sparrow\"}","bird":["Chipping Sparrow"],"family":["New World Sparrows and Allies"],"class":["769"],"trial_type":"image-multi-choice","trial_index":189,"time_elapsed":1528888,"internal_node_id":"0.0-1.0-188.0"},{"rt":5769,"responses":"{\"Q0\":\"Swamp Sparrow\"}","bird":["American Tree Sparrow"],"family":["New World Sparrows and Allies"],"class":["894"],"trial_type":"image-multi-choice","trial_index":190,"time_elapsed":1535738,"internal_node_id":"0.0-1.0-189.0"},{"rt":7751,"responses":"{\"Q0\":\"Song Sparrow\"}","bird":["Vesper Sparrow"],"family":["New World Sparrows and Allies"],"class":["898"],"trial_type":"image-multi-choice","trial_index":191,"time_elapsed":1544614,"internal_node_id":"0.0-1.0-190.0"},{"rt":5737,"responses":"{\"Q0\":\"Song Sparrow\"}","bird":["Lincoln's Sparrow"],"family":["New World Sparrows and Allies"],"class":["903"],"trial_type":"image-multi-choice","trial_index":192,"time_elapsed":1551441,"internal_node_id":"0.0-1.0-191.0"},{"rt":8248,"responses":"{\"Q0\":\"Tennessee Warbler\"}","bird":["Tennessee Warbler"],"family":["Wood-Warblers"],"class":["866"],"trial_type":"image-multi-choice","trial_index":193,"time_elapsed":1560727,"internal_node_id":"0.0-1.0-192.0"},{"rt":3606,"responses":"{\"Q0\":\"American Tree Sparrow\"}","bird":["American Tree Sparrow"],"family":["New World Sparrows and Allies"],"class":["894"],"trial_type":"image-multi-choice","trial_index":194,"time_elapsed":1565385,"internal_node_id":"0.0-1.0-193.0"},{"rt":3591,"responses":"{\"Q0\":\"Lark Sparrow\"}","bird":["Lark Sparrow"],"family":["New World Sparrows and Allies"],"class":["899"],"trial_type":"image-multi-choice","trial_index":195,"time_elapsed":1570042,"internal_node_id":"0.0-1.0-194.0"},{"rt":5630,"responses":"{\"Q0\":\"Orange-crowned Warbler\"}","bird":["Tennessee Warbler"],"family":["Wood-Warblers"],"class":["866"],"trial_type":"image-multi-choice","trial_index":196,"time_elapsed":1576770,"internal_node_id":"0.0-1.0-195.0"},{"rt":3672,"responses":"{\"Q0\":\"Northern Waterthrush\"}","bird":["Northern Waterthrush"],"family":["Wood-Warblers"],"class":["862"],"trial_type":"image-multi-choice","trial_index":197,"time_elapsed":1581552,"internal_node_id":"0.0-1.0-196.0"},{"rt":1979,"responses":"{\"Q0\":\"White-throated Sparrow\"}","bird":["White-throated Sparrow"],"family":["New World Sparrows and Allies"],"class":["764"],"trial_type":"image-multi-choice","trial_index":198,"time_elapsed":1584601,"internal_node_id":"0.0-1.0-197.0"},{"rt":1920,"responses":"{\"Q0\":\"Yellow Warbler\"}","bird":["Yellow Warbler"],"family":["Wood-Warblers"],"class":["875"],"trial_type":"image-multi-choice","trial_index":199,"time_elapsed":1587648,"internal_node_id":"0.0-1.0-198.0"},{"rt":3947,"responses":"{\"Q0\":\"White-crowned Sparrow\"}","bird":["White-crowned Sparrow"],"family":["New World Sparrows and Allies"],"class":["766"],"trial_type":"image-multi-choice","trial_index":200,"time_elapsed":1592702,"internal_node_id":"0.0-1.0-199.0"},{"rt":5824,"responses":"{\"Q0\":\"American Tree Sparrow\"}","bird":["American Tree Sparrow"],"family":["New World Sparrows and Allies"],"class":["894"],"trial_type":"image-multi-choice","trial_index":201,"time_elapsed":1599640,"internal_node_id":"0.0-1.0-200.0"},{"rt":3858,"responses":"{\"Q0\":\"Ovenbird\"}","bird":["Ovenbird"],"family":["Wood-Warblers"],"class":["860"],"trial_type":"image-multi-choice","trial_index":202,"time_elapsed":1604616,"internal_node_id":"0.0-1.0-201.0"},{"rt":3354,"responses":"{\"Q0\":\"Magnolia Warbler\"}","bird":["Magnolia Warbler"],"family":["Wood-Warblers"],"class":["758"],"trial_type":"image-multi-choice","trial_index":203,"time_elapsed":1609196,"internal_node_id":"0.0-1.0-202.0"},{"rt":22103,"responses":"{\"Q0\":\"Townsend's Warbler\"}","bird":["Black-and-white Warbler"],"family":["Wood-Warblers"],"class":["864"],"trial_type":"image-multi-choice","trial_index":204,"time_elapsed":1632385,"internal_node_id":"0.0-1.0-203.0"},{"rt":2992,"responses":"{\"Q0\":\"Northern Waterthrush\"}","bird":["Northern Waterthrush"],"family":["Wood-Warblers"],"class":["862"],"trial_type":"image-multi-choice","trial_index":205,"time_elapsed":1636465,"internal_node_id":"0.0-1.0-204.0"},{"rt":7339,"responses":"{\"Q0\":\"American Tree Sparrow\"}","bird":["American Tree Sparrow"],"family":["New World Sparrows and Allies"],"class":["894"],"trial_type":"image-multi-choice","trial_index":206,"time_elapsed":1644843,"internal_node_id":"0.0-1.0-205.0"},{"rt":3550,"responses":"{\"Q0\":\"Magnolia Warbler\"}","bird":["Magnolia Warbler"],"family":["Wood-Warblers"],"class":["758"],"trial_type":"image-multi-choice","trial_index":207,"time_elapsed":1649449,"internal_node_id":"0.0-1.0-206.0"},{"rt":34746,"responses":"{\"Q0\":\"Magnolia Warbler\"}","bird":["Blackburnian Warbler"],"family":["Wood-Warblers"],"class":["874"],"trial_type":"image-multi-choice","trial_index":208,"time_elapsed":1685266,"internal_node_id":"0.0-1.0-207.0"},{"rt":4939,"responses":"{\"Q0\":\"American Tree Sparrow\"}","bird":["Swamp Sparrow"],"family":["New World Sparrows and Allies"],"class":["904"],"trial_type":"image-multi-choice","trial_index":209,"time_elapsed":1691289,"internal_node_id":"0.0-1.0-208.0"},{"rt":4051,"responses":"{\"Q0\":\"American Tree Sparrow\"}","bird":["American Tree Sparrow"],"family":["New World Sparrows and Allies"],"class":["894"],"trial_type":"image-multi-choice","trial_index":210,"time_elapsed":1696405,"internal_node_id":"0.0-1.0-209.0"},{"rt":2691,"responses":"{\"Q0\":\"Ovenbird\"}","bird":["Ovenbird"],"family":["Wood-Warblers"],"class":["860"],"trial_type":"image-multi-choice","trial_index":211,"time_elapsed":1700175,"internal_node_id":"0.0-1.0-210.0"},{"rt":3162,"responses":"{\"Q0\":\"White-throated Sparrow\"}","bird":["Swamp Sparrow"],"family":["New World Sparrows and Allies"],"class":["904"],"trial_type":"image-multi-choice","trial_index":212,"time_elapsed":1704384,"internal_node_id":"0.0-1.0-211.0"},{"rt":5887,"responses":"{\"Q0\":\"Song Sparrow\"}","bird":["Song Sparrow"],"family":["New World Sparrows and Allies"],"class":["902"],"trial_type":"image-multi-choice","trial_index":213,"time_elapsed":1711350,"internal_node_id":"0.0-1.0-212.0"},{"rt":4191,"responses":"{\"Q0\":\"Blackburnian Warbler\"}","bird":["Blackburnian Warbler"],"family":["Wood-Warblers"],"class":["874"],"trial_type":"image-multi-choice","trial_index":214,"time_elapsed":1716595,"internal_node_id":"0.0-1.0-213.0"},{"rt":7512,"responses":"{\"Q0\":\"Vesper Sparrow\"}","bird":["Vesper Sparrow"],"family":["New World Sparrows and Allies"],"class":["898"],"trial_type":"image-multi-choice","trial_index":215,"time_elapsed":1725205,"internal_node_id":"0.0-1.0-214.0"},{"rt":8414,"responses":"{\"Q0\":\"Black-and-white Warbler\"}","bird":["Blackburnian Warbler"],"family":["Wood-Warblers"],"class":["874"],"trial_type":"image-multi-choice","trial_index":216,"time_elapsed":1734748,"internal_node_id":"0.0-1.0-215.0"},{"rt":2859,"responses":"{\"Q0\":\"Song Sparrow\"}","bird":["Song Sparrow"],"family":["New World Sparrows and Allies"],"class":["902"],"trial_type":"image-multi-choice","trial_index":217,"time_elapsed":1738717,"internal_node_id":"0.0-1.0-216.0"},{"rt":5180,"responses":"{\"Q0\":\"Orange-crowned Warbler\"}","bird":["Tennessee Warbler"],"family":["Wood-Warblers"],"class":["866"],"trial_type":"image-multi-choice","trial_index":218,"time_elapsed":1744983,"internal_node_id":"0.0-1.0-217.0"},{"rt":7125,"responses":"{\"Q0\":\"Blackburnian Warbler\"}","bird":["Black-and-white Warbler"],"family":["Wood-Warblers"],"class":["864"],"trial_type":"image-multi-choice","trial_index":219,"time_elapsed":1753184,"internal_node_id":"0.0-1.0-218.0"},{"rt":7077,"responses":"{\"Q0\":\"Ovenbird\"}","bird":["Ovenbird"],"family":["Wood-Warblers"],"class":["860"],"trial_type":"image-multi-choice","trial_index":220,"time_elapsed":1761472,"internal_node_id":"0.0-1.0-219.0"},{"rt":2021,"responses":"{\"Q0\":\"White-throated Sparrow\"}","bird":["White-throated Sparrow"],"family":["New World Sparrows and Allies"],"class":["764"],"trial_type":"image-multi-choice","trial_index":221,"time_elapsed":1764558,"internal_node_id":"0.0-1.0-220.0"},{"rt":5549,"responses":"{\"Q0\":\"Vesper Sparrow\"}","bird":["Vesper Sparrow"],"family":["New World Sparrows and Allies"],"class":["898"],"trial_type":"image-multi-choice","trial_index":222,"time_elapsed":1771169,"internal_node_id":"0.0-1.0-221.0"},{"rt":4761,"responses":"{\"Q0\":\"Chipping Sparrow\"}","bird":["American Tree Sparrow"],"family":["New World Sparrows and Allies"],"class":["894"],"trial_type":"image-multi-choice","trial_index":223,"time_elapsed":1776968,"internal_node_id":"0.0-1.0-222.0"},{"rt":1764,"responses":"{\"Q0\":\"Yellow Warbler\"}","bird":["Yellow Warbler"],"family":["Wood-Warblers"],"class":["875"],"trial_type":"image-multi-choice","trial_index":224,"time_elapsed":1779818,"internal_node_id":"0.0-1.0-223.0"},{"rt":5178,"responses":"{\"Q0\":\"Northern Waterthrush\"}","bird":["Northern Waterthrush"],"family":["Wood-Warblers"],"class":["862"],"trial_type":"image-multi-choice","trial_index":225,"time_elapsed":1786076,"internal_node_id":"0.0-1.0-224.0"},{"rt":6781,"responses":"{\"Q0\":\"Blackburnian Warbler\"}","bird":["Blackburnian Warbler"],"family":["Wood-Warblers"],"class":["874"],"trial_type":"image-multi-choice","trial_index":226,"time_elapsed":1793992,"internal_node_id":"0.0-1.0-225.0"},{"rt":2010,"responses":"{\"Q0\":\"White-throated Sparrow\"}","bird":["White-throated Sparrow"],"family":["New World Sparrows and Allies"],"class":["764"],"trial_type":"image-multi-choice","trial_index":227,"time_elapsed":1797118,"internal_node_id":"0.0-1.0-226.0"},{"rt":3749,"responses":"{\"Q0\":\"Song Sparrow\"}","bird":["Song Sparrow"],"family":["New World Sparrows and Allies"],"class":["902"],"trial_type":"image-multi-choice","trial_index":228,"time_elapsed":1801980,"internal_node_id":"0.0-1.0-227.0"},{"rt":4067,"responses":"{\"Q0\":\"Ovenbird\"}","bird":["Ovenbird"],"family":["Wood-Warblers"],"class":["860"],"trial_type":"image-multi-choice","trial_index":229,"time_elapsed":1807174,"internal_node_id":"0.0-1.0-228.0"},{"rt":6197,"responses":"{\"Q0\":\"Townsend's Warbler\"}","bird":["Townsend's Warbler"],"family":["Wood-Warblers"],"class":["881"],"trial_type":"image-multi-choice","trial_index":230,"time_elapsed":1814491,"internal_node_id":"0.0-1.0-229.0"},{"rt":6366,"responses":"{\"Q0\":\"Nashville Warbler\"}","bird":["Nashville Warbler"],"family":["Wood-Warblers"],"class":["868"],"trial_type":"image-multi-choice","trial_index":231,"time_elapsed":1821928,"internal_node_id":"0.0-1.0-230.0"},{"rt":2774,"responses":"{\"Q0\":\"Fox Sparrow\"}","bird":["Fox Sparrow"],"family":["New World Sparrows and Allies"],"class":["901"],"trial_type":"image-multi-choice","trial_index":232,"time_elapsed":1825772,"internal_node_id":"0.0-1.0-231.0"},{"rt":2975,"responses":"{\"Q0\":\"Ovenbird\"}","bird":["Ovenbird"],"family":["Wood-Warblers"],"class":["860"],"trial_type":"image-multi-choice","trial_index":233,"time_elapsed":1829822,"internal_node_id":"0.0-1.0-232.0"},{"rt":3121,"responses":"{\"Q0\":\"Magnolia Warbler\"}","bird":["Magnolia Warbler"],"family":["Wood-Warblers"],"class":["758"],"trial_type":"image-multi-choice","trial_index":234,"time_elapsed":1833997,"internal_node_id":"0.0-1.0-233.0"},{"rt":10184,"responses":"{\"Q0\":\"American Tree Sparrow\"}","bird":["American Tree Sparrow"],"family":["New World Sparrows and Allies"],"class":["894"],"trial_type":"image-multi-choice","trial_index":235,"time_elapsed":1845242,"internal_node_id":"0.0-1.0-234.0"},{"rt":5192,"responses":"{\"Q0\":\"Blackburnian Warbler\"}","bird":["Blackburnian Warbler"],"family":["Wood-Warblers"],"class":["874"],"trial_type":"image-multi-choice","trial_index":236,"time_elapsed":1851483,"internal_node_id":"0.0-1.0-235.0"},{"rt":8363,"responses":"{\"Q0\":\"Chipping Sparrow\"}","bird":["Chipping Sparrow"],"family":["New World Sparrows and Allies"],"class":["769"],"trial_type":"image-multi-choice","trial_index":237,"time_elapsed":1860956,"internal_node_id":"0.0-1.0-236.0"},{"rt":2370,"responses":"{\"Q0\":\"Fox Sparrow\"}","bird":["Fox Sparrow"],"family":["New World Sparrows and Allies"],"class":["901"],"trial_type":"image-multi-choice","trial_index":238,"time_elapsed":1864400,"internal_node_id":"0.0-1.0-237.0"},{"rt":4024,"responses":"{\"Q0\":\"Lark Sparrow\"}","bird":["Vesper Sparrow"],"family":["New World Sparrows and Allies"],"class":["898"],"trial_type":"image-multi-choice","trial_index":239,"time_elapsed":1869518,"internal_node_id":"0.0-1.0-238.0"},{"rt":2577,"responses":"{\"Q0\":\"Nashville Warbler\"}","bird":["Northern Waterthrush"],"family":["Wood-Warblers"],"class":["862"],"trial_type":"image-multi-choice","trial_index":240,"time_elapsed":1883363,"internal_node_id":"0.0-1.0-239.0"},{"rt":3022,"responses":"{\"Q0\":\"Lark Sparrow\"}","bird":["Lark Sparrow"],"family":["New World Sparrows and Allies"],"class":["899"],"trial_type":"image-multi-choice","trial_index":241,"time_elapsed":1887457,"internal_node_id":"0.0-1.0-240.0"},{"rt":13708,"responses":"{\"Q0\":\"Nashville Warbler\"}","bird":["Nashville Warbler"],"family":["Wood-Warblers"],"class":["868"],"trial_type":"image-multi-choice","trial_index":242,"time_elapsed":1902247,"internal_node_id":"0.0-1.0-241.0"},{"rt":2995,"responses":"{\"Q0\":\"Ovenbird\"}","bird":["Ovenbird"],"family":["Wood-Warblers"],"class":["860"],"trial_type":"image-multi-choice","trial_index":243,"time_elapsed":1906326,"internal_node_id":"0.0-1.0-242.0"},{"rt":4587,"responses":"{\"Q0\":\"Northern Waterthrush\"}","bird":["Northern Waterthrush"],"family":["Wood-Warblers"],"class":["862"],"trial_type":"image-multi-choice","trial_index":244,"time_elapsed":1911955,"internal_node_id":"0.0-1.0-243.0"},{"rt":4266,"responses":"{\"Q0\":\"Orange-crowned Warbler\"}","bird":["Orange-crowned Warbler"],"family":["Wood-Warblers"],"class":["867"],"trial_type":"image-multi-choice","trial_index":245,"time_elapsed":1917281,"internal_node_id":"0.0-1.0-244.0"},{"rt":5589,"responses":"{\"Q0\":\"Lark Sparrow\"}","bird":["Chipping Sparrow"],"family":["New World Sparrows and Allies"],"class":["769"],"trial_type":"image-multi-choice","trial_index":246,"time_elapsed":1923935,"internal_node_id":"0.0-1.0-245.0"},{"rt":12198,"responses":"{\"Q0\":\"Tennessee Warbler\"}","bird":["Tennessee Warbler"],"family":["Wood-Warblers"],"class":["866"],"trial_type":"image-multi-choice","trial_index":247,"time_elapsed":1937216,"internal_node_id":"0.0-1.0-246.0"},{"rt":3010,"responses":"{\"Q0\":\"Yellow Warbler\"}","bird":["Yellow Warbler"],"family":["Wood-Warblers"],"class":["875"],"trial_type":"image-multi-choice","trial_index":248,"time_elapsed":1941302,"internal_node_id":"0.0-1.0-247.0"},{"rt":4694,"responses":"{\"Q0\":\"Lincoln's Sparrow\"}","bird":["Lincoln's Sparrow"],"family":["New World Sparrows and Allies"],"class":["903"],"trial_type":"image-multi-choice","trial_index":249,"time_elapsed":1947132,"internal_node_id":"0.0-1.0-248.0"},{"rt":4915,"responses":"{\"Q0\":\"Swamp Sparrow\"}","bird":["Vesper Sparrow"],"family":["New World Sparrows and Allies"],"class":["898"],"trial_type":"image-multi-choice","trial_index":250,"time_elapsed":1953156,"internal_node_id":"0.0-1.0-249.0"},{"rt":5620,"responses":"{\"Q0\":\"Black-and-white Warbler\"}","bird":["Black-and-white Warbler"],"family":["Wood-Warblers"],"class":["864"],"trial_type":"image-multi-choice","trial_index":251,"time_elapsed":1959854,"internal_node_id":"0.0-1.0-250.0"},{"rt":4403,"responses":"{\"Q0\":\"Song Sparrow\"}","bird":["Song Sparrow"],"family":["New World Sparrows and Allies"],"class":["902"],"trial_type":"image-multi-choice","trial_index":252,"time_elapsed":1965342,"internal_node_id":"0.0-1.0-251.0"},{"rt":4970,"responses":"{\"Q0\":\"Chipping Sparrow\"}","bird":["Chipping Sparrow"],"family":["New World Sparrows and Allies"],"class":["769"],"trial_type":"image-multi-choice","trial_index":253,"time_elapsed":1971405,"internal_node_id":"0.0-1.0-252.0"},{"rt":5892,"responses":"{\"Q0\":\"Townsend's Warbler\"}","bird":["Magnolia Warbler"],"family":["Wood-Warblers"],"class":["758"],"trial_type":"image-multi-choice","trial_index":254,"time_elapsed":1978339,"internal_node_id":"0.0-1.0-253.0"},{"rt":5614,"responses":"{\"Q0\":\"Lincoln's Sparrow\"}","bird":["Lincoln's Sparrow"],"family":["New World Sparrows and Allies"],"class":["903"],"trial_type":"image-multi-choice","trial_index":255,"time_elapsed":1985016,"internal_node_id":"0.0-1.0-254.0"},{"rt":2086,"responses":"{\"Q0\":\"White-throated Sparrow\"}","bird":["White-throated Sparrow"],"family":["New World Sparrows and Allies"],"class":["764"],"trial_type":"image-multi-choice","trial_index":256,"time_elapsed":1988176,"internal_node_id":"0.0-1.0-255.0"},{"rt":2545,"responses":"{\"Q0\":\"Fox Sparrow\"}","bird":["Fox Sparrow"],"family":["New World Sparrows and Allies"],"class":["901"],"trial_type":"image-multi-choice","trial_index":257,"time_elapsed":1991813,"internal_node_id":"0.0-1.0-256.0"},{"rt":5849,"responses":"{\"Q0\":\"Black-and-white Warbler\"}","bird":["Black-and-white Warbler"],"family":["Wood-Warblers"],"class":["864"],"trial_type":"image-multi-choice","trial_index":258,"time_elapsed":1998773,"internal_node_id":"0.0-1.0-257.0"},{"rt":4579,"responses":"{\"Q0\":\"Chipping Sparrow\"}","bird":["Chipping Sparrow"],"family":["New World Sparrows and Allies"],"class":["769"],"trial_type":"image-multi-choice","trial_index":259,"time_elapsed":2004421,"internal_node_id":"0.0-1.0-258.0"},{"rt":3410,"responses":"{\"Q0\":\"Tennessee Warbler\"}","bird":["Orange-crowned Warbler"],"family":["Wood-Warblers"],"class":["867"],"trial_type":"image-multi-choice","trial_index":260,"time_elapsed":2008964,"internal_node_id":"0.0-1.0-259.0"},{"rt":2455,"responses":"{\"Q0\":\"Lark Sparrow\"}","bird":["Lark Sparrow"],"family":["New World Sparrows and Allies"],"class":["899"],"trial_type":"image-multi-choice","trial_index":261,"time_elapsed":2012535,"internal_node_id":"0.0-1.0-260.0"},{"rt":3615,"responses":"{\"Q0\":\"Song Sparrow\"}","bird":["Lincoln's Sparrow"],"family":["New World Sparrows and Allies"],"class":["903"],"trial_type":"image-multi-choice","trial_index":262,"time_elapsed":2017271,"internal_node_id":"0.0-1.0-261.0"},{"rt":4507,"responses":"{\"Q0\":\"Nashville Warbler\"}","bird":["Northern Waterthrush"],"family":["Wood-Warblers"],"class":["862"],"trial_type":"image-multi-choice","trial_index":263,"time_elapsed":2022892,"internal_node_id":"0.0-1.0-262.0"},{"rt":9142,"responses":"{\"Q0\":\"Nashville Warbler\"}","bird":["Nashville Warbler"],"family":["Wood-Warblers"],"class":["868"],"trial_type":"image-multi-choice","trial_index":264,"time_elapsed":2033143,"internal_node_id":"0.0-1.0-263.0"},{"rt":4294,"responses":"{\"Q0\":\"Lark Sparrow\"}","bird":["Lark Sparrow"],"family":["New World Sparrows and Allies"],"class":["899"],"trial_type":"image-multi-choice","trial_index":265,"time_elapsed":2038533,"internal_node_id":"0.0-1.0-264.0"},{"rt":7731,"responses":"{\"Q0\":\"Orange-crowned Warbler\"}","bird":["Orange-crowned Warbler"],"family":["Wood-Warblers"],"class":["867"],"trial_type":"image-multi-choice","trial_index":266,"time_elapsed":2047314,"internal_node_id":"0.0-1.0-265.0"},{"rt":4032,"responses":"{\"Q0\":\"Magnolia Warbler\"}","bird":["Magnolia Warbler"],"family":["Wood-Warblers"],"class":["758"],"trial_type":"image-multi-choice","trial_index":267,"time_elapsed":2052389,"internal_node_id":"0.0-1.0-266.0"},{"rt":4541,"responses":"{\"Q0\":\"Tennessee Warbler\"}","bird":["Orange-crowned Warbler"],"family":["Wood-Warblers"],"class":["867"],"trial_type":"image-multi-choice","trial_index":268,"time_elapsed":2057981,"internal_node_id":"0.0-1.0-267.0"},{"rt":1730,"responses":"{\"Q0\":\"Yellow Warbler\"}","bird":["Yellow Warbler"],"family":["Wood-Warblers"],"class":["875"],"trial_type":"image-multi-choice","trial_index":269,"time_elapsed":2060775,"internal_node_id":"0.0-1.0-268.0"},{"rt":5294,"responses":"{\"Q0\":\"Orange-crowned Warbler\"}","bird":["Orange-crowned Warbler"],"family":["Wood-Warblers"],"class":["867"],"trial_type":"image-multi-choice","trial_index":270,"time_elapsed":2067125,"internal_node_id":"0.0-1.0-269.0"},{"rt":3278,"responses":"{\"Q0\":\"Lincoln's Sparrow\"}","bird":["Lincoln's Sparrow"],"family":["New World Sparrows and Allies"],"class":["903"],"trial_type":"image-multi-choice","trial_index":271,"time_elapsed":2071501,"internal_node_id":"0.0-1.0-270.0"},{"rt":3333,"responses":"{\"Q0\":\"Lark Sparrow\"}","bird":["Lark Sparrow"],"family":["New World Sparrows and Allies"],"class":["899"],"trial_type":"image-multi-choice","trial_index":272,"time_elapsed":2075964,"internal_node_id":"0.0-1.0-271.0"},{"rt":4052,"responses":"{\"Q0\":\"Lincoln's Sparrow\"}","bird":["Lincoln's Sparrow"],"family":["New World Sparrows and Allies"],"class":["903"],"trial_type":"image-multi-choice","trial_index":273,"time_elapsed":2081157,"internal_node_id":"0.0-1.0-272.0"},{"rt":7043,"responses":"{\"Q0\":\"Orange-crowned Warbler\"}","bird":["Nashville Warbler"],"family":["Wood-Warblers"],"class":["868"],"trial_type":"image-multi-choice","trial_index":274,"time_elapsed":2089326,"internal_node_id":"0.0-1.0-273.0"},{"rt":3615,"responses":"{\"Q0\":\"Lark Sparrow\"}","bird":["Lark Sparrow"],"family":["New World Sparrows and Allies"],"class":["899"],"trial_type":"image-multi-choice","trial_index":275,"time_elapsed":2094031,"internal_node_id":"0.0-1.0-274.0"},{"rt":2872,"responses":"{\"Q0\":\"Chipping Sparrow\"}","bird":["Chipping Sparrow"],"family":["New World Sparrows and Allies"],"class":["769"],"trial_type":"image-multi-choice","trial_index":276,"time_elapsed":2098173,"internal_node_id":"0.0-1.0-275.0"},{"rt":2504,"responses":"{\"Q0\":\"White-throated Sparrow\"}","bird":["White-throated Sparrow"],"family":["New World Sparrows and Allies"],"class":["764"],"trial_type":"image-multi-choice","trial_index":277,"time_elapsed":2101744,"internal_node_id":"0.0-1.0-276.0"},{"rt":3648,"responses":"{\"Q0\":\"Song Sparrow\"}","bird":["Song Sparrow"],"family":["New World Sparrows and Allies"],"class":["902"],"trial_type":"image-multi-choice","trial_index":278,"time_elapsed":2106477,"internal_node_id":"0.0-1.0-277.0"},{"rt":2579,"responses":"{\"Q0\":\"Ovenbird\"}","bird":["Ovenbird"],"family":["Wood-Warblers"],"class":["860"],"trial_type":"image-multi-choice","trial_index":279,"time_elapsed":2110129,"internal_node_id":"0.0-1.0-278.0"},{"rt":5356,"responses":"{\"Q0\":\"Lark Sparrow\"}","bird":["Lark Sparrow"],"family":["New World Sparrows and Allies"],"class":["899"],"trial_type":"image-multi-choice","trial_index":280,"time_elapsed":2116552,"internal_node_id":"0.0-1.0-279.0"},{"rt":4209,"responses":"{\"Q0\":\"Chipping Sparrow\"}","bird":["Chipping Sparrow"],"family":["New World Sparrows and Allies"],"class":["769"],"trial_type":"image-multi-choice","trial_index":281,"time_elapsed":2121793,"internal_node_id":"0.0-1.0-280.0"},{"rt":2980,"responses":"{\"Q0\":\"Lark Sparrow\"}","bird":["Lark Sparrow"],"family":["New World Sparrows and Allies"],"class":["899"],"trial_type":"image-multi-choice","trial_index":282,"time_elapsed":2125865,"internal_node_id":"0.0-1.0-281.0"},{"rt":2893,"responses":"{\"Q0\":\"Song Sparrow\"}","bird":["Song Sparrow"],"family":["New World Sparrows and Allies"],"class":["902"],"trial_type":"image-multi-choice","trial_index":283,"time_elapsed":2129823,"internal_node_id":"0.0-1.0-282.0"},{"rt":4203,"responses":"{\"Q0\":\"White-throated Sparrow\"}","bird":["White-throated Sparrow"],"family":["New World Sparrows and Allies"],"class":["764"],"trial_type":"image-multi-choice","trial_index":284,"time_elapsed":2135100,"internal_node_id":"0.0-1.0-283.0"},{"rt":4744,"responses":"{\"Q0\":\"Magnolia Warbler\"}","bird":["Magnolia Warbler"],"family":["Wood-Warblers"],"class":["758"],"trial_type":"image-multi-choice","trial_index":285,"time_elapsed":2140909,"internal_node_id":"0.0-1.0-284.0"},{"rt":6848,"responses":"{\"Q0\":\"Orange-crowned Warbler\"}","bird":["Orange-crowned Warbler"],"family":["Wood-Warblers"],"class":["867"],"trial_type":"image-multi-choice","trial_index":286,"time_elapsed":2148856,"internal_node_id":"0.0-1.0-285.0"},{"rt":3232,"responses":"{\"Q0\":\"Lincoln's Sparrow\"}","bird":["Lincoln's Sparrow"],"family":["New World Sparrows and Allies"],"class":["903"],"trial_type":"image-multi-choice","trial_index":287,"time_elapsed":2153224,"internal_node_id":"0.0-1.0-286.0"},{"rt":2602,"responses":"{\"Q0\":\"Lark Sparrow\"}","bird":["Lark Sparrow"],"family":["New World Sparrows and Allies"],"class":["899"],"trial_type":"image-multi-choice","trial_index":288,"time_elapsed":2156941,"internal_node_id":"0.0-1.0-287.0"},{"rt":5764,"responses":"{\"Q0\":\"Blackburnian Warbler\"}","bird":["Townsend's Warbler"],"family":["Wood-Warblers"],"class":["881"],"trial_type":"image-multi-choice","trial_index":289,"time_elapsed":2163791,"internal_node_id":"0.0-1.0-288.0"},{"rt":6225,"responses":"{\"Q0\":\"Black-and-white Warbler\"}","bird":["Black-and-white Warbler"],"family":["Wood-Warblers"],"class":["864"],"trial_type":"image-multi-choice","trial_index":290,"time_elapsed":2171113,"internal_node_id":"0.0-1.0-289.0"},{"rt":2927,"responses":"{\"Q0\":\"Tennessee Warbler\"}","bird":["Tennessee Warbler"],"family":["Wood-Warblers"],"class":["866"],"trial_type":"image-multi-choice","trial_index":291,"time_elapsed":2175085,"internal_node_id":"0.0-1.0-290.0"},{"rt":4914,"responses":"{\"Q0\":\"Chipping Sparrow\"}","bird":["American Tree Sparrow"],"family":["New World Sparrows and Allies"],"class":["894"],"trial_type":"image-multi-choice","trial_index":292,"time_elapsed":2181038,"internal_node_id":"0.0-1.0-291.0"},{"rt":2907,"responses":"{\"Q0\":\"Chipping Sparrow\"}","bird":["Chipping Sparrow"],"family":["New World Sparrows and Allies"],"class":["769"],"trial_type":"image-multi-choice","trial_index":293,"time_elapsed":2185006,"internal_node_id":"0.0-1.0-292.0"},{"rt":2576,"responses":"{\"Q0\":\"Lark Sparrow\"}","bird":["Lark Sparrow"],"family":["New World Sparrows and Allies"],"class":["899"],"trial_type":"image-multi-choice","trial_index":294,"time_elapsed":2188627,"internal_node_id":"0.0-1.0-293.0"},{"rt":3167,"responses":"{\"Q0\":\"Magnolia Warbler\"}","bird":["Magnolia Warbler"],"family":["Wood-Warblers"],"class":["758"],"trial_type":"image-multi-choice","trial_index":295,"time_elapsed":2192887,"internal_node_id":"0.0-1.0-294.0"},{"rt":1824,"responses":"{\"Q0\":\"Yellow Warbler\"}","bird":["Yellow Warbler"],"family":["Wood-Warblers"],"class":["875"],"trial_type":"image-multi-choice","trial_index":296,"time_elapsed":2195860,"internal_node_id":"0.0-1.0-295.0"},{"rt":2024,"responses":"{\"Q0\":\"White-crowned Sparrow\"}","bird":["White-crowned Sparrow"],"family":["New World Sparrows and Allies"],"class":["766"],"trial_type":"image-multi-choice","trial_index":297,"time_elapsed":2199000,"internal_node_id":"0.0-1.0-296.0"},{"rt":3759,"responses":"{\"Q0\":\"Swamp Sparrow\"}","bird":["Swamp Sparrow"],"family":["New World Sparrows and Allies"],"class":["904"],"trial_type":"image-multi-choice","trial_index":298,"time_elapsed":2203875,"internal_node_id":"0.0-1.0-297.0"},{"rt":5797,"responses":"{\"Q0\":\"Orange-crowned Warbler\"}","bird":["Orange-crowned Warbler"],"family":["Wood-Warblers"],"class":["867"],"trial_type":"image-multi-choice","trial_index":299,"time_elapsed":2210787,"internal_node_id":"0.0-1.0-298.0"},{"rt":6526,"responses":"{\"Q0\":\"Swamp Sparrow\"}","bird":["Vesper Sparrow"],"family":["New World Sparrows and Allies"],"class":["898"],"trial_type":"image-multi-choice","trial_index":300,"time_elapsed":2224977,"internal_node_id":"0.0-1.0-299.0"},{"view_history":"[{\"page_index\":0,\"viewing_time\":2115}]","rt":2116,"trial_type":"instructions","trial_index":301,"time_elapsed":2228106,"internal_node_id":"0.0-2.0"}]