[{"view_history":"[{\"page_index\":0,\"viewing_time\":14316}]","rt":14317,"trial_type":"instructions","trial_index":0,"time_elapsed":14317,"internal_node_id":"0.0-0.0"},{"rt":3797,"responses":"{\"Q0\":\"American Tree Sparrow\"}","bird":["American Tree Sparrow"],"family":["New World Sparrows and Allies"],"class":["894"],"trial_type":"image-multi-choice","trial_index":1,"time_elapsed":19135,"internal_node_id":"0.0-1.0-0.0"},{"rt":4217,"responses":"{\"Q0\":\"Tennessee Warbler\"}","bird":["Tennessee Warbler"],"family":["Wood-Warblers"],"class":["866"],"trial_type":"image-multi-choice","trial_index":2,"time_elapsed":24366,"internal_node_id":"0.0-1.0-1.0"},{"rt":3599,"responses":"{\"Q0\":\"White-crowned Sparrow\"}","bird":["White-crowned Sparrow"],"family":["New World Sparrows and Allies"],"class":["766"],"trial_type":"image-multi-choice","trial_index":3,"time_elapsed":28978,"internal_node_id":"0.0-1.0-2.0"},{"rt":2882,"responses":"{\"Q0\":\"American Tree Sparrow\"}","bird":["American Tree Sparrow"],"family":["New World Sparrows and Allies"],"class":["894"],"trial_type":"image-multi-choice","trial_index":4,"time_elapsed":32870,"internal_node_id":"0.0-1.0-3.0"},{"rt":3238,"responses":"{\"Q0\":\"White-crowned Sparrow\"}","bird":["White-crowned Sparrow"],"family":["New World Sparrows and Allies"],"class":["766"],"trial_type":"image-multi-choice","trial_index":5,"time_elapsed":37123,"internal_node_id":"0.0-1.0-4.0"},{"rt":6604,"responses":"{\"Q0\":\"Blackburnian Warbler\"}","bird":["Townsend's Warbler"],"family":["Wood-Warblers"],"class":["881"],"trial_type":"image-multi-choice","trial_index":6,"time_elapsed":44736,"internal_node_id":"0.0-1.0-5.0"},{"rt":2999,"responses":"{\"Q0\":\"Vesper Sparrow\"}","bird":["Vesper Sparrow"],"family":["New World Sparrows and Allies"],"class":["898"],"trial_type":"image-multi-choice","trial_index":7,"time_elapsed":48749,"internal_node_id":"0.0-1.0-6.0"},{"rt":3683,"responses":"{\"Q0\":\"Yellow Warbler\"}","bird":["Nashville Warbler"],"family":["Wood-Warblers"],"class":["868"],"trial_type":"image-multi-choice","trial_index":8,"time_elapsed":53447,"internal_node_id":"0.0-1.0-7.0"},{"rt":4617,"responses":"{\"Q0\":\"Northern Waterthrush\"}","bird":["Northern Waterthrush"],"family":["Wood-Warblers"],"class":["862"],"trial_type":"image-multi-choice","trial_index":9,"time_elapsed":59072,"internal_node_id":"0.0-1.0-8.0"},{"rt":5135,"responses":"{\"Q0\":\"Ovenbird\"}","bird":["Ovenbird"],"family":["Wood-Warblers"],"class":["860"],"trial_type":"image-multi-choice","trial_index":10,"time_elapsed":65215,"internal_node_id":"0.0-1.0-9.0"},{"rt":4030,"responses":"{\"Q0\":\"Lincoln's Sparrow\"}","bird":["Lincoln's Sparrow"],"family":["New World Sparrows and Allies"],"class":["903"],"trial_type":"image-multi-choice","trial_index":11,"time_elapsed":70258,"internal_node_id":"0.0-1.0-10.0"},{"rt":4968,"responses":"{\"Q0\":\"Townsend's Warbler\"}","bird":["Townsend's Warbler"],"family":["Wood-Warblers"],"class":["881"],"trial_type":"image-multi-choice","trial_index":12,"time_elapsed":76236,"internal_node_id":"0.0-1.0-11.0"},{"rt":4337,"responses":"{\"Q0\":\"Fox Sparrow\"}","bird":["Fox Sparrow"],"family":["New World Sparrows and Allies"],"class":["901"],"trial_type":"image-multi-choice","trial_index":13,"time_elapsed":81584,"internal_node_id":"0.0-1.0-12.0"},{"rt":11540,"responses":"{\"Q0\":\"Blackburnian Warbler\"}","bird":["Blackburnian Warbler"],"family":["Wood-Warblers"],"class":["874"],"trial_type":"image-multi-choice","trial_index":14,"time_elapsed":94134,"internal_node_id":"0.0-1.0-13.0"},{"rt":2762,"responses":"{\"Q0\":\"Vesper Sparrow\"}","bird":["Vesper Sparrow"],"family":["New World Sparrows and Allies"],"class":["898"],"trial_type":"image-multi-choice","trial_index":15,"time_elapsed":97906,"internal_node_id":"0.0-1.0-14.0"},{"rt":3384,"responses":"{\"Q0\":\"Black-and-white Warbler\"}","bird":["Black-and-white Warbler"],"family":["Wood-Warblers"],"class":["864"],"trial_type":"image-multi-choice","trial_index":16,"time_elapsed":102302,"internal_node_id":"0.0-1.0-15.0"},{"rt":4329,"responses":"{\"Q0\":\"Nashville Warbler\"}","bird":["Nashville Warbler"],"family":["Wood-Warblers"],"class":["868"],"trial_type":"image-multi-choice","trial_index":17,"time_elapsed":107640,"internal_node_id":"0.0-1.0-16.0"},{"rt":4965,"responses":"{\"Q0\":\"Lincoln's Sparrow\"}","bird":["Lincoln's Sparrow"],"family":["New World Sparrows and Allies"],"class":["903"],"trial_type":"image-multi-choice","trial_index":18,"time_elapsed":113618,"internal_node_id":"0.0-1.0-17.0"},{"rt":3126,"responses":"{\"Q0\":\"Yellow Warbler\"}","bird":["Nashville Warbler"],"family":["Wood-Warblers"],"class":["868"],"trial_type":"image-multi-choice","trial_index":19,"time_elapsed":117752,"internal_node_id":"0.0-1.0-18.0"},{"rt":3680,"responses":"{\"Q0\":\"Lark Sparrow\"}","bird":["Lark Sparrow"],"family":["New World Sparrows and Allies"],"class":["899"],"trial_type":"image-multi-choice","trial_index":20,"time_elapsed":122442,"internal_node_id":"0.0-1.0-19.0"},{"rt":6808,"responses":"{\"Q0\":\"Magnolia Warbler\"}","bird":["Magnolia Warbler"],"family":["Wood-Warblers"],"class":["758"],"trial_type":"image-multi-choice","trial_index":21,"time_elapsed":130262,"internal_node_id":"0.0-1.0-20.0"},{"rt":3348,"responses":"{\"Q0\":\"Townsend's Warbler\"}","bird":["Townsend's Warbler"],"family":["Wood-Warblers"],"class":["881"],"trial_type":"image-multi-choice","trial_index":22,"time_elapsed":134625,"internal_node_id":"0.0-1.0-21.0"},{"rt":3728,"responses":"{\"Q0\":\"Swamp Sparrow\"}","bird":["Swamp Sparrow"],"family":["New World Sparrows and Allies"],"class":["904"],"trial_type":"image-multi-choice","trial_index":23,"time_elapsed":139365,"internal_node_id":"0.0-1.0-22.0"},{"rt":6032,"responses":"{\"Q0\":\"Tennessee Warbler\"}","bird":["Tennessee Warbler"],"family":["Wood-Warblers"],"class":["866"],"trial_type":"image-multi-choice","trial_index":24,"time_elapsed":146409,"internal_node_id":"0.0-1.0-23.0"},{"rt":2916,"responses":"{\"Q0\":\"Ovenbird\"}","bird":["Ovenbird"],"family":["Wood-Warblers"],"class":["860"],"trial_type":"image-multi-choice","trial_index":25,"time_elapsed":150337,"internal_node_id":"0.0-1.0-24.0"},{"rt":4148,"responses":"{\"Q0\":\"White-crowned Sparrow\"}","bird":["White-crowned Sparrow"],"family":["New World Sparrows and Allies"],"class":["766"],"trial_type":"image-multi-choice","trial_index":26,"time_elapsed":155496,"internal_node_id":"0.0-1.0-25.0"},{"rt":3254,"responses":"{\"Q0\":\"Vesper Sparrow\"}","bird":["Vesper Sparrow"],"family":["New World Sparrows and Allies"],"class":["898"],"trial_type":"image-multi-choice","trial_index":27,"time_elapsed":159760,"internal_node_id":"0.0-1.0-26.0"},{"rt":3287,"responses":"{\"Q0\":\"Orange-crowned Warbler\"}","bird":["Orange-crowned Warbler"],"family":["Wood-Warblers"],"class":["867"],"trial_type":"image-multi-choice","trial_index":28,"time_elapsed":164058,"internal_node_id":"0.0-1.0-27.0"},{"rt":2988,"responses":"{\"Q0\":\"American Tree Sparrow\"}","bird":["American Tree Sparrow"],"family":["New World Sparrows and Allies"],"class":["894"],"trial_type":"image-multi-choice","trial_index":29,"time_elapsed":168060,"internal_node_id":"0.0-1.0-28.0"},{"rt":4509,"responses":"{\"Q0\":\"Orange-crowned Warbler\"}","bird":["Tennessee Warbler"],"family":["Wood-Warblers"],"class":["866"],"trial_type":"image-multi-choice","trial_index":30,"time_elapsed":173581,"internal_node_id":"0.0-1.0-29.0"},{"rt":4155,"responses":"{\"Q0\":\"Magnolia Warbler\"}","bird":["Magnolia Warbler"],"family":["Wood-Warblers"],"class":["758"],"trial_type":"image-multi-choice","trial_index":31,"time_elapsed":178744,"internal_node_id":"0.0-1.0-30.0"},{"rt":3762,"responses":"{\"Q0\":\"Blackburnian Warbler\"}","bird":["Blackburnian Warbler"],"family":["Wood-Warblers"],"class":["874"],"trial_type":"image-multi-choice","trial_index":32,"time_elapsed":183518,"internal_node_id":"0.0-1.0-31.0"},{"rt":4658,"responses":"{\"Q0\":\"Tennessee Warbler\"}","bird":["Tennessee Warbler"],"family":["Wood-Warblers"],"class":["866"],"trial_type":"image-multi-choice","trial_index":33,"time_elapsed":189189,"internal_node_id":"0.0-1.0-32.0"},{"rt":3509,"responses":"{\"Q0\":\"Vesper Sparrow\"}","bird":["Vesper Sparrow"],"family":["New World Sparrows and Allies"],"class":["898"],"trial_type":"image-multi-choice","trial_index":34,"time_elapsed":193709,"internal_node_id":"0.0-1.0-33.0"},{"rt":4805,"responses":"{\"Q0\":\"Orange-crowned Warbler\"}","bird":["Orange-crowned Warbler"],"family":["Wood-Warblers"],"class":["867"],"trial_type":"image-multi-choice","trial_index":35,"time_elapsed":199525,"internal_node_id":"0.0-1.0-34.0"},{"rt":2377,"responses":"{\"Q0\":\"White-crowned Sparrow\"}","bird":["White-crowned Sparrow"],"family":["New World Sparrows and Allies"],"class":["766"],"trial_type":"image-multi-choice","trial_index":36,"time_elapsed":202915,"internal_node_id":"0.0-1.0-35.0"},{"rt":4210,"responses":"{\"Q0\":\"Fox Sparrow\"}","bird":["Fox Sparrow"],"family":["New World Sparrows and Allies"],"class":["901"],"trial_type":"image-multi-choice","trial_index":37,"time_elapsed":208137,"internal_node_id":"0.0-1.0-36.0"},{"rt":3366,"responses":"{\"Q0\":\"Swamp Sparrow\"}","bird":["Swamp Sparrow"],"family":["New World Sparrows and Allies"],"class":["904"],"trial_type":"image-multi-choice","trial_index":38,"time_elapsed":212515,"internal_node_id":"0.0-1.0-37.0"},{"rt":2075,"responses":"{\"Q0\":\"Yellow Warbler\"}","bird":["Yellow Warbler"],"family":["Wood-Warblers"],"class":["875"],"trial_type":"image-multi-choice","trial_index":39,"time_elapsed":215597,"internal_node_id":"0.0-1.0-38.0"},{"rt":5480,"responses":"{\"Q0\":\"Black-and-white Warbler\"}","bird":["Black-and-white Warbler"],"family":["Wood-Warblers"],"class":["864"],"trial_type":"image-multi-choice","trial_index":40,"time_elapsed":222087,"internal_node_id":"0.0-1.0-39.0"},{"rt":3108,"responses":"{\"Q0\":\"Fox Sparrow\"}","bird":["Fox Sparrow"],"family":["New World Sparrows and Allies"],"class":["901"],"trial_type":"image-multi-choice","trial_index":41,"time_elapsed":226203,"internal_node_id":"0.0-1.0-40.0"},{"rt":3976,"responses":"{\"Q0\":\"Northern Waterthrush\"}","bird":["Northern Waterthrush"],"family":["Wood-Warblers"],"class":["862"],"trial_type":"image-multi-choice","trial_index":42,"time_elapsed":231192,"internal_node_id":"0.0-1.0-41.0"},{"rt":5079,"responses":"{\"Q0\":\"Nashville Warbler\"}","bird":["Nashville Warbler"],"family":["Wood-Warblers"],"class":["868"],"trial_type":"image-multi-choice","trial_index":43,"time_elapsed":237279,"internal_node_id":"0.0-1.0-42.0"},{"rt":4106,"responses":"{\"Q0\":\"Blackburnian Warbler\"}","bird":["Blackburnian Warbler"],"family":["Wood-Warblers"],"class":["874"],"trial_type":"image-multi-choice","trial_index":44,"time_elapsed":242394,"internal_node_id":"0.0-1.0-43.0"},{"rt":6598,"responses":"{\"Q0\":\"Orange-crowned Warbler\"}","bird":["Orange-crowned Warbler"],"family":["Wood-Warblers"],"class":["867"],"trial_type":"image-multi-choice","trial_index":45,"time_elapsed":250003,"internal_node_id":"0.0-1.0-44.0"},{"rt":3787,"responses":"{\"Q0\":\"Blackburnian Warbler\"}","bird":["Blackburnian Warbler"],"family":["Wood-Warblers"],"class":["874"],"trial_type":"image-multi-choice","trial_index":46,"time_elapsed":254802,"internal_node_id":"0.0-1.0-45.0"},{"rt":7542,"responses":"{\"Q0\":\"Nashville Warbler\"}","bird":["Nashville Warbler"],"family":["Wood-Warblers"],"class":["868"],"trial_type":"image-multi-choice","trial_index":47,"time_elapsed":263355,"internal_node_id":"0.0-1.0-46.0"},{"rt":5561,"responses":"{\"Q0\":\"Northern Waterthrush\"}","bird":["Northern Waterthrush"],"family":["Wood-Warblers"],"class":["862"],"trial_type":"image-multi-choice","trial_index":48,"time_elapsed":269929,"internal_node_id":"0.0-1.0-47.0"},{"rt":6002,"responses":"{\"Q0\":\"Fox Sparrow\"}","bird":["Fox Sparrow"],"family":["New World Sparrows and Allies"],"class":["901"],"trial_type":"image-multi-choice","trial_index":49,"time_elapsed":276939,"internal_node_id":"0.0-1.0-48.0"},{"rt":3160,"responses":"{\"Q0\":\"Swamp Sparrow\"}","bird":["Swamp Sparrow"],"family":["New World Sparrows and Allies"],"class":["904"],"trial_type":"image-multi-choice","trial_index":50,"time_elapsed":281111,"internal_node_id":"0.0-1.0-49.0"},{"rt":4008,"responses":"{\"Q0\":\"Nashville Warbler\"}","bird":["Nashville Warbler"],"family":["Wood-Warblers"],"class":["868"],"trial_type":"image-multi-choice","trial_index":51,"time_elapsed":286131,"internal_node_id":"0.0-1.0-50.0"},{"rt":3521,"responses":"{\"Q0\":\"Black-and-white Warbler\"}","bird":["Black-and-white Warbler"],"family":["Wood-Warblers"],"class":["864"],"trial_type":"image-multi-choice","trial_index":52,"time_elapsed":290659,"internal_node_id":"0.0-1.0-51.0"},{"rt":2775,"responses":"{\"Q0\":\"American Tree Sparrow\"}","bird":["American Tree Sparrow"],"family":["New World Sparrows and Allies"],"class":["894"],"trial_type":"image-multi-choice","trial_index":53,"time_elapsed":294442,"internal_node_id":"0.0-1.0-52.0"},{"rt":3161,"responses":"{\"Q0\":\"Black-and-white Warbler\"}","bird":["Black-and-white Warbler"],"family":["Wood-Warblers"],"class":["864"],"trial_type":"image-multi-choice","trial_index":54,"time_elapsed":298612,"internal_node_id":"0.0-1.0-53.0"},{"rt":6274,"responses":"{\"Q0\":\"Blackburnian Warbler\"}","bird":["Townsend's Warbler"],"family":["Wood-Warblers"],"class":["881"],"trial_type":"image-multi-choice","trial_index":55,"time_elapsed":305893,"internal_node_id":"0.0-1.0-54.0"},{"rt":3379,"responses":"{\"Q0\":\"Lark Sparrow\"}","bird":["Lark Sparrow"],"family":["New World Sparrows and Allies"],"class":["899"],"trial_type":"image-multi-choice","trial_index":56,"time_elapsed":310284,"internal_node_id":"0.0-1.0-55.0"},{"rt":3702,"responses":"{\"Q0\":\"Ovenbird\"}","bird":["Ovenbird"],"family":["Wood-Warblers"],"class":["860"],"trial_type":"image-multi-choice","trial_index":57,"time_elapsed":314998,"internal_node_id":"0.0-1.0-56.0"},{"rt":3251,"responses":"{\"Q0\":\"Song Sparrow\"}","bird":["Song Sparrow"],"family":["New World Sparrows and Allies"],"class":["902"],"trial_type":"image-multi-choice","trial_index":58,"time_elapsed":319259,"internal_node_id":"0.0-1.0-57.0"},{"rt":7625,"responses":"{\"Q0\":\"Chipping Sparrow\"}","bird":["Chipping Sparrow"],"family":["New World Sparrows and Allies"],"class":["769"],"trial_type":"image-multi-choice","trial_index":59,"time_elapsed":327897,"internal_node_id":"0.0-1.0-58.0"},{"rt":2585,"responses":"{\"Q0\":\"Black-and-white Warbler\"}","bird":["Black-and-white Warbler"],"family":["Wood-Warblers"],"class":["864"],"trial_type":"image-multi-choice","trial_index":60,"time_elapsed":819367,"internal_node_id":"0.0-1.0-59.0"},{"rt":4768,"responses":"{\"Q0\":\"Chipping Sparrow\"}","bird":["Chipping Sparrow"],"family":["New World Sparrows and Allies"],"class":["769"],"trial_type":"image-multi-choice","trial_index":61,"time_elapsed":825145,"internal_node_id":"0.0-1.0-60.0"},{"rt":3174,"responses":"{\"Q0\":\"Swamp Sparrow\"}","bird":["Swamp Sparrow"],"family":["New World Sparrows and Allies"],"class":["904"],"trial_type":"image-multi-choice","trial_index":62,"time_elapsed":829327,"internal_node_id":"0.0-1.0-61.0"},{"rt":4606,"responses":"{\"Q0\":\"Yellow Warbler\"}","bird":["Nashville Warbler"],"family":["Wood-Warblers"],"class":["868"],"trial_type":"image-multi-choice","trial_index":63,"time_elapsed":834942,"internal_node_id":"0.0-1.0-62.0"},{"rt":5060,"responses":"{\"Q0\":\"Lincoln's Sparrow\"}","bird":["Lincoln's Sparrow"],"family":["New World Sparrows and Allies"],"class":["903"],"trial_type":"image-multi-choice","trial_index":64,"time_elapsed":841013,"internal_node_id":"0.0-1.0-63.0"},{"rt":3347,"responses":"{\"Q0\":\"Black-and-white Warbler\"}","bird":["Black-and-white Warbler"],"family":["Wood-Warblers"],"class":["864"],"trial_type":"image-multi-choice","trial_index":65,"time_elapsed":845372,"internal_node_id":"0.0-1.0-64.0"},{"rt":5650,"responses":"{\"Q0\":\"Fox Sparrow\"}","bird":["Fox Sparrow"],"family":["New World Sparrows and Allies"],"class":["901"],"trial_type":"image-multi-choice","trial_index":66,"time_elapsed":852034,"internal_node_id":"0.0-1.0-65.0"},{"rt":8119,"responses":"{\"Q0\":\"Townsend's Warbler\"}","bird":["Townsend's Warbler"],"family":["Wood-Warblers"],"class":["881"],"trial_type":"image-multi-choice","trial_index":67,"time_elapsed":861162,"internal_node_id":"0.0-1.0-66.0"},{"rt":2668,"responses":"{\"Q0\":\"Yellow Warbler\"}","bird":["Yellow Warbler"],"family":["Wood-Warblers"],"class":["875"],"trial_type":"image-multi-choice","trial_index":68,"time_elapsed":864842,"internal_node_id":"0.0-1.0-67.0"},{"rt":14492,"responses":"{\"Q0\":\"Northern Waterthrush\"}","bird":["Tennessee Warbler"],"family":["Wood-Warblers"],"class":["866"],"trial_type":"image-multi-choice","trial_index":69,"time_elapsed":880347,"internal_node_id":"0.0-1.0-68.0"},{"rt":3217,"responses":"{\"Q0\":\"Ovenbird\"}","bird":["Ovenbird"],"family":["Wood-Warblers"],"class":["860"],"trial_type":"image-multi-choice","trial_index":70,"time_elapsed":884572,"internal_node_id":"0.0-1.0-69.0"},{"rt":3011,"responses":"{\"Q0\":\"Townsend's Warbler\"}","bird":["Townsend's Warbler"],"family":["Wood-Warblers"],"class":["881"],"trial_type":"image-multi-choice","trial_index":71,"time_elapsed":888593,"internal_node_id":"0.0-1.0-70.0"},{"rt":2557,"responses":"{\"Q0\":\"Black-and-white Warbler\"}","bird":["Black-and-white Warbler"],"family":["Wood-Warblers"],"class":["864"],"trial_type":"image-multi-choice","trial_index":72,"time_elapsed":892161,"internal_node_id":"0.0-1.0-71.0"},{"rt":3458,"responses":"{\"Q0\":\"Song Sparrow\"}","bird":["Song Sparrow"],"family":["New World Sparrows and Allies"],"class":["902"],"trial_type":"image-multi-choice","trial_index":73,"time_elapsed":896631,"internal_node_id":"0.0-1.0-72.0"},{"rt":4042,"responses":"{\"Q0\":\"Northern Waterthrush\"}","bird":["Northern Waterthrush"],"family":["Wood-Warblers"],"class":["862"],"trial_type":"image-multi-choice","trial_index":74,"time_elapsed":901685,"internal_node_id":"0.0-1.0-73.0"},{"rt":3527,"responses":"{\"Q0\":\"Swamp Sparrow\"}","bird":["Swamp Sparrow"],"family":["New World Sparrows and Allies"],"class":["904"],"trial_type":"image-multi-choice","trial_index":75,"time_elapsed":906222,"internal_node_id":"0.0-1.0-74.0"},{"rt":2477,"responses":"{\"Q0\":\"White-crowned Sparrow\"}","bird":["White-crowned Sparrow"],"family":["New World Sparrows and Allies"],"class":["766"],"trial_type":"image-multi-choice","trial_index":76,"time_elapsed":909712,"internal_node_id":"0.0-1.0-75.0"},{"rt":2120,"responses":"{\"Q0\":\"White-throated Sparrow\"}","bird":["White-throated Sparrow"],"family":["New World Sparrows and Allies"],"class":["764"],"trial_type":"image-multi-choice","trial_index":77,"time_elapsed":912844,"internal_node_id":"0.0-1.0-76.0"},{"rt":5633,"responses":"{\"Q0\":\"Blackburnian Warbler\"}","bird":["Townsend's Warbler"],"family":["Wood-Warblers"],"class":["881"],"trial_type":"image-multi-choice","trial_index":78,"time_elapsed":919486,"internal_node_id":"0.0-1.0-77.0"},{"rt":4365,"responses":"{\"Q0\":\"Vesper Sparrow\"}","bird":["Vesper Sparrow"],"family":["New World Sparrows and Allies"],"class":["898"],"trial_type":"image-multi-choice","trial_index":79,"time_elapsed":924860,"internal_node_id":"0.0-1.0-78.0"},{"rt":2723,"responses":"{\"Q0\":\"White-throated Sparrow\"}","bird":["White-throated Sparrow"],"family":["New World Sparrows and Allies"],"class":["764"],"trial_type":"image-multi-choice","trial_index":80,"time_elapsed":928591,"internal_node_id":"0.0-1.0-79.0"},{"rt":7240,"responses":"{\"Q0\":\"Northern Waterthrush\"}","bird":["Northern Waterthrush"],"family":["Wood-Warblers"],"class":["862"],"trial_type":"image-multi-choice","trial_index":81,"time_elapsed":936839,"internal_node_id":"0.0-1.0-80.0"},{"rt":2768,"responses":"{\"Q0\":\"Yellow Warbler\"}","bird":["Yellow Warbler"],"family":["Wood-Warblers"],"class":["875"],"trial_type":"image-multi-choice","trial_index":82,"time_elapsed":940619,"internal_node_id":"0.0-1.0-81.0"},{"rt":6999,"responses":"{\"Q0\":\"Nashville Warbler\"}","bird":["Nashville Warbler"],"family":["Wood-Warblers"],"class":["868"],"trial_type":"image-multi-choice","trial_index":83,"time_elapsed":948627,"internal_node_id":"0.0-1.0-82.0"},{"rt":3652,"responses":"{\"Q0\":\"Lark Sparrow\"}","bird":["Lark Sparrow"],"family":["New World Sparrows and Allies"],"class":["899"],"trial_type":"image-multi-choice","trial_index":84,"time_elapsed":953287,"internal_node_id":"0.0-1.0-83.0"},{"rt":4507,"responses":"{\"Q0\":\"Orange-crowned Warbler\"}","bird":["Orange-crowned Warbler"],"family":["Wood-Warblers"],"class":["867"],"trial_type":"image-multi-choice","trial_index":85,"time_elapsed":958804,"internal_node_id":"0.0-1.0-84.0"},{"rt":9623,"responses":"{\"Q0\":\"Nashville Warbler\"}","bird":["Nashville Warbler"],"family":["Wood-Warblers"],"class":["868"],"trial_type":"image-multi-choice","trial_index":86,"time_elapsed":969436,"internal_node_id":"0.0-1.0-85.0"},{"rt":2864,"responses":"{\"Q0\":\"Black-and-white Warbler\"}","bird":["Black-and-white Warbler"],"family":["Wood-Warblers"],"class":["864"],"trial_type":"image-multi-choice","trial_index":87,"time_elapsed":973308,"internal_node_id":"0.0-1.0-86.0"},{"rt":7157,"responses":"{\"Q0\":\"Nashville Warbler\"}","bird":["Nashville Warbler"],"family":["Wood-Warblers"],"class":["868"],"trial_type":"image-multi-choice","trial_index":88,"time_elapsed":981477,"internal_node_id":"0.0-1.0-87.0"},{"rt":3925,"responses":"{\"Q0\":\"Ovenbird\"}","bird":["Ovenbird"],"family":["Wood-Warblers"],"class":["860"],"trial_type":"image-multi-choice","trial_index":89,"time_elapsed":986414,"internal_node_id":"0.0-1.0-88.0"},{"rt":2893,"responses":"{\"Q0\":\"Black-and-white Warbler\"}","bird":["Black-and-white Warbler"],"family":["Wood-Warblers"],"class":["864"],"trial_type":"image-multi-choice","trial_index":90,"time_elapsed":990319,"internal_node_id":"0.0-1.0-89.0"},{"rt":4512,"responses":"{\"Q0\":\"Chipping Sparrow\"}","bird":["Chipping Sparrow"],"family":["New World Sparrows and Allies"],"class":["769"],"trial_type":"image-multi-choice","trial_index":91,"time_elapsed":995839,"internal_node_id":"0.0-1.0-90.0"},{"rt":5159,"responses":"{\"Q0\":\"Tennessee Warbler\"}","bird":["Tennessee Warbler"],"family":["Wood-Warblers"],"class":["866"],"trial_type":"image-multi-choice","trial_index":92,"time_elapsed":1002006,"internal_node_id":"0.0-1.0-91.0"},{"rt":3180,"responses":"{\"Q0\":\"White-throated Sparrow\"}","bird":["White-throated Sparrow"],"family":["New World Sparrows and Allies"],"class":["764"],"trial_type":"image-multi-choice","trial_index":93,"time_elapsed":1006199,"internal_node_id":"0.0-1.0-92.0"},{"rt":3299,"responses":"{\"Q0\":\"Song Sparrow\"}","bird":["Song Sparrow"],"family":["New World Sparrows and Allies"],"class":["902"],"trial_type":"image-multi-choice","trial_index":94,"time_elapsed":1010505,"internal_node_id":"0.0-1.0-93.0"},{"rt":3885,"responses":"{\"Q0\":\"Blackburnian Warbler\"}","bird":["Blackburnian Warbler"],"family":["Wood-Warblers"],"class":["874"],"trial_type":"image-multi-choice","trial_index":95,"time_elapsed":1015397,"internal_node_id":"0.0-1.0-94.0"},{"rt":3762,"responses":"{\"Q0\":\"American Tree Sparrow\"}","bird":["American Tree Sparrow"],"family":["New World Sparrows and Allies"],"class":["894"],"trial_type":"image-multi-choice","trial_index":96,"time_elapsed":1020167,"internal_node_id":"0.0-1.0-95.0"},{"rt":2750,"responses":"{\"Q0\":\"White-throated Sparrow\"}","bird":["White-throated Sparrow"],"family":["New World Sparrows and Allies"],"class":["764"],"trial_type":"image-multi-choice","trial_index":97,"time_elapsed":1023927,"internal_node_id":"0.0-1.0-96.0"},{"rt":4245,"responses":"{\"Q0\":\"Orange-crowned Warbler\"}","bird":["Orange-crowned Warbler"],"family":["Wood-Warblers"],"class":["867"],"trial_type":"image-multi-choice","trial_index":98,"time_elapsed":1029185,"internal_node_id":"0.0-1.0-97.0"},{"rt":5870,"responses":"{\"Q0\":\"Yellow Warbler\"}","bird":["Yellow Warbler"],"family":["Wood-Warblers"],"class":["875"],"trial_type":"image-multi-choice","trial_index":99,"time_elapsed":1036068,"internal_node_id":"0.0-1.0-98.0"},{"rt":3833,"responses":"{\"Q0\":\"Fox Sparrow\"}","bird":["Fox Sparrow"],"family":["New World Sparrows and Allies"],"class":["901"],"trial_type":"image-multi-choice","trial_index":100,"time_elapsed":1040912,"internal_node_id":"0.0-1.0-99.0"},{"rt":3353,"responses":"{\"Q0\":\"Chipping Sparrow\"}","bird":["Chipping Sparrow"],"family":["New World Sparrows and Allies"],"class":["769"],"trial_type":"image-multi-choice","trial_index":101,"time_elapsed":1045271,"internal_node_id":"0.0-1.0-100.0"},{"rt":4676,"responses":"{\"Q0\":\"Northern Waterthrush\"}","bird":["Northern Waterthrush"],"family":["Wood-Warblers"],"class":["862"],"trial_type":"image-multi-choice","trial_index":102,"time_elapsed":1050958,"internal_node_id":"0.0-1.0-101.0"},{"rt":5752,"responses":"{\"Q0\":\"Swamp Sparrow\"}","bird":["Swamp Sparrow"],"family":["New World Sparrows and Allies"],"class":["904"],"trial_type":"image-multi-choice","trial_index":103,"time_elapsed":1057721,"internal_node_id":"0.0-1.0-102.0"},{"rt":5057,"responses":"{\"Q0\":\"Northern Waterthrush\"}","bird":["Northern Waterthrush"],"family":["Wood-Warblers"],"class":["862"],"trial_type":"image-multi-choice","trial_index":104,"time_elapsed":1063789,"internal_node_id":"0.0-1.0-103.0"},{"rt":2065,"responses":"{\"Q0\":\"Yellow Warbler\"}","bird":["Yellow Warbler"],"family":["Wood-Warblers"],"class":["875"],"trial_type":"image-multi-choice","trial_index":105,"time_elapsed":1066862,"internal_node_id":"0.0-1.0-104.0"},{"rt":3496,"responses":"{\"Q0\":\"Magnolia Warbler\"}","bird":["Magnolia Warbler"],"family":["Wood-Warblers"],"class":["758"],"trial_type":"image-multi-choice","trial_index":106,"time_elapsed":1071371,"internal_node_id":"0.0-1.0-105.0"},{"rt":6320,"responses":"{\"Q0\":\"Blackburnian Warbler\"}","bird":["Townsend's Warbler"],"family":["Wood-Warblers"],"class":["881"],"trial_type":"image-multi-choice","trial_index":107,"time_elapsed":1078699,"internal_node_id":"0.0-1.0-106.0"},{"rt":2953,"responses":"{\"Q0\":\"Swamp Sparrow\"}","bird":["Swamp Sparrow"],"family":["New World Sparrows and Allies"],"class":["904"],"trial_type":"image-multi-choice","trial_index":108,"time_elapsed":1082665,"internal_node_id":"0.0-1.0-107.0"},{"rt":3609,"responses":"{\"Q0\":\"Fox Sparrow\"}","bird":["Fox Sparrow"],"family":["New World Sparrows and Allies"],"class":["901"],"trial_type":"image-multi-choice","trial_index":109,"time_elapsed":1087285,"internal_node_id":"0.0-1.0-108.0"},{"rt":1895,"responses":"{\"Q0\":\"Yellow Warbler\"}","bird":["Yellow Warbler"],"family":["Wood-Warblers"],"class":["875"],"trial_type":"image-multi-choice","trial_index":110,"time_elapsed":1090190,"internal_node_id":"0.0-1.0-109.0"},{"rt":3347,"responses":"{\"Q0\":\"Lincoln's Sparrow\"}","bird":["Lincoln's Sparrow"],"family":["New World Sparrows and Allies"],"class":["903"],"trial_type":"image-multi-choice","trial_index":111,"time_elapsed":1094547,"internal_node_id":"0.0-1.0-110.0"},{"rt":3369,"responses":"{\"Q0\":\"Blackburnian Warbler\"}","bird":["Townsend's Warbler"],"family":["Wood-Warblers"],"class":["881"],"trial_type":"image-multi-choice","trial_index":112,"time_elapsed":1098928,"internal_node_id":"0.0-1.0-111.0"},{"rt":2924,"responses":"{\"Q0\":\"White-crowned Sparrow\"}","bird":["White-crowned Sparrow"],"family":["New World Sparrows and Allies"],"class":["766"],"trial_type":"image-multi-choice","trial_index":113,"time_elapsed":1102860,"internal_node_id":"0.0-1.0-112.0"},{"rt":3022,"responses":"{\"Q0\":\"Blackburnian Warbler\"}","bird":["Blackburnian Warbler"],"family":["Wood-Warblers"],"class":["874"],"trial_type":"image-multi-choice","trial_index":114,"time_elapsed":1106896,"internal_node_id":"0.0-1.0-113.0"},{"rt":5032,"responses":"{\"Q0\":\"Orange-crowned Warbler\"}","bird":["Nashville Warbler"],"family":["Wood-Warblers"],"class":["868"],"trial_type":"image-multi-choice","trial_index":115,"time_elapsed":1112936,"internal_node_id":"0.0-1.0-114.0"},{"rt":5404,"responses":"{\"Q0\":\"Tennessee Warbler\"}","bird":["Tennessee Warbler"],"family":["Wood-Warblers"],"class":["866"],"trial_type":"image-multi-choice","trial_index":116,"time_elapsed":1119350,"internal_node_id":"0.0-1.0-115.0"},{"rt":2561,"responses":"{\"Q0\":\"Vesper Sparrow\"}","bird":["Vesper Sparrow"],"family":["New World Sparrows and Allies"],"class":["898"],"trial_type":"image-multi-choice","trial_index":117,"time_elapsed":1122920,"internal_node_id":"0.0-1.0-116.0"},{"rt":7591,"responses":"{\"Q0\":\"Lincoln's Sparrow\"}","bird":["Swamp Sparrow"],"family":["New World Sparrows and Allies"],"class":["904"],"trial_type":"image-multi-choice","trial_index":118,"time_elapsed":1131524,"internal_node_id":"0.0-1.0-117.0"},{"rt":2311,"responses":"{\"Q0\":\"White-throated Sparrow\"}","bird":["White-crowned Sparrow"],"family":["New World Sparrows and Allies"],"class":["766"],"trial_type":"image-multi-choice","trial_index":119,"time_elapsed":1134849,"internal_node_id":"0.0-1.0-118.0"},{"rt":3412,"responses":"{\"Q0\":\"Blackburnian Warbler\"}","bird":["Blackburnian Warbler"],"family":["Wood-Warblers"],"class":["874"],"trial_type":"image-multi-choice","trial_index":120,"time_elapsed":3676002,"internal_node_id":"0.0-1.0-119.0"},{"rt":8860,"responses":"{\"Q0\":\"Fox Sparrow\"}","bird":["Fox Sparrow"],"family":["New World Sparrows and Allies"],"class":["901"],"trial_type":"image-multi-choice","trial_index":121,"time_elapsed":3685871,"internal_node_id":"0.0-1.0-120.0"},{"rt":3692,"responses":"{\"Q0\":\"Vesper Sparrow\"}","bird":["Vesper Sparrow"],"family":["New World Sparrows and Allies"],"class":["898"],"trial_type":"image-multi-choice","trial_index":122,"time_elapsed":3690573,"internal_node_id":"0.0-1.0-121.0"},{"rt":2371,"responses":"{\"Q0\":\"Yellow Warbler\"}","bird":["Yellow Warbler"],"family":["Wood-Warblers"],"class":["875"],"trial_type":"image-multi-choice","trial_index":123,"time_elapsed":3693953,"internal_node_id":"0.0-1.0-122.0"},{"rt":3245,"responses":"{\"Q0\":\"Song Sparrow\"}","bird":["Song Sparrow"],"family":["New World Sparrows and Allies"],"class":["902"],"trial_type":"image-multi-choice","trial_index":124,"time_elapsed":3698208,"internal_node_id":"0.0-1.0-123.0"},{"rt":4209,"responses":"{\"Q0\":\"Blackburnian Warbler\"}","bird":["Townsend's Warbler"],"family":["Wood-Warblers"],"class":["881"],"trial_type":"image-multi-choice","trial_index":125,"time_elapsed":3703426,"internal_node_id":"0.0-1.0-124.0"},{"rt":2823,"responses":"{\"Q0\":\"White-crowned Sparrow\"}","bird":["White-crowned Sparrow"],"family":["New World Sparrows and Allies"],"class":["766"],"trial_type":"image-multi-choice","trial_index":126,"time_elapsed":3707262,"internal_node_id":"0.0-1.0-125.0"},{"rt":2763,"responses":"{\"Q0\":\"Song Sparrow\"}","bird":["Song Sparrow"],"family":["New World Sparrows and Allies"],"class":["902"],"trial_type":"image-multi-choice","trial_index":127,"time_elapsed":3711036,"internal_node_id":"0.0-1.0-126.0"},{"rt":2832,"responses":"{\"Q0\":\"Ovenbird\"}","bird":["Ovenbird"],"family":["Wood-Warblers"],"class":["860"],"trial_type":"image-multi-choice","trial_index":128,"time_elapsed":3714881,"internal_node_id":"0.0-1.0-127.0"},{"rt":3535,"responses":"{\"Q0\":\"Magnolia Warbler\"}","bird":["Magnolia Warbler"],"family":["Wood-Warblers"],"class":["758"],"trial_type":"image-multi-choice","trial_index":129,"time_elapsed":3719425,"internal_node_id":"0.0-1.0-128.0"},{"rt":3518,"responses":"{\"Q0\":\"Swamp Sparrow\"}","bird":["Swamp Sparrow"],"family":["New World Sparrows and Allies"],"class":["904"],"trial_type":"image-multi-choice","trial_index":130,"time_elapsed":3723953,"internal_node_id":"0.0-1.0-129.0"},{"rt":3372,"responses":"{\"Q0\":\"Lark Sparrow\"}","bird":["Lark Sparrow"],"family":["New World Sparrows and Allies"],"class":["899"],"trial_type":"image-multi-choice","trial_index":131,"time_elapsed":3728338,"internal_node_id":"0.0-1.0-130.0"},{"rt":3041,"responses":"{\"Q0\":\"Magnolia Warbler\"}","bird":["Magnolia Warbler"],"family":["Wood-Warblers"],"class":["758"],"trial_type":"image-multi-choice","trial_index":132,"time_elapsed":3732395,"internal_node_id":"0.0-1.0-131.0"},{"rt":2879,"responses":"{\"Q0\":\"White-throated Sparrow\"}","bird":["White-throated Sparrow"],"family":["New World Sparrows and Allies"],"class":["764"],"trial_type":"image-multi-choice","trial_index":133,"time_elapsed":3736284,"internal_node_id":"0.0-1.0-132.0"},{"rt":4619,"responses":"{\"Q0\":\"Magnolia Warbler\"}","bird":["Magnolia Warbler"],"family":["Wood-Warblers"],"class":["758"],"trial_type":"image-multi-choice","trial_index":134,"time_elapsed":3741914,"internal_node_id":"0.0-1.0-133.0"},{"rt":3270,"responses":"{\"Q0\":\"Yellow Warbler\"}","bird":["Yellow Warbler"],"family":["Wood-Warblers"],"class":["875"],"trial_type":"image-multi-choice","trial_index":135,"time_elapsed":3746198,"internal_node_id":"0.0-1.0-134.0"},{"rt":4460,"responses":"{\"Q0\":\"Tennessee Warbler\"}","bird":["Tennessee Warbler"],"family":["Wood-Warblers"],"class":["866"],"trial_type":"image-multi-choice","trial_index":136,"time_elapsed":3751669,"internal_node_id":"0.0-1.0-135.0"},{"rt":4371,"responses":"{\"Q0\":\"Ovenbird\"}","bird":["Ovenbird"],"family":["Wood-Warblers"],"class":["860"],"trial_type":"image-multi-choice","trial_index":137,"time_elapsed":3757048,"internal_node_id":"0.0-1.0-136.0"},{"rt":5290,"responses":"{\"Q0\":\"Black-and-white Warbler\"}","bird":["Black-and-white Warbler"],"family":["Wood-Warblers"],"class":["864"],"trial_type":"image-multi-choice","trial_index":138,"time_elapsed":3763348,"internal_node_id":"0.0-1.0-137.0"},{"rt":4300,"responses":"{\"Q0\":\"Chipping Sparrow\"}","bird":["Chipping Sparrow"],"family":["New World Sparrows and Allies"],"class":["769"],"trial_type":"image-multi-choice","trial_index":139,"time_elapsed":3768659,"internal_node_id":"0.0-1.0-138.0"},{"rt":3768,"responses":"{\"Q0\":\"Northern Waterthrush\"}","bird":["Northern Waterthrush"],"family":["Wood-Warblers"],"class":["862"],"trial_type":"image-multi-choice","trial_index":140,"time_elapsed":3773437,"internal_node_id":"0.0-1.0-139.0"},{"rt":4189,"responses":"{\"Q0\":\"Vesper Sparrow\"}","bird":["Vesper Sparrow"],"family":["New World Sparrows and Allies"],"class":["898"],"trial_type":"image-multi-choice","trial_index":141,"time_elapsed":3778633,"internal_node_id":"0.0-1.0-140.0"},{"rt":3528,"responses":"{\"Q0\":\"White-throated Sparrow\"}","bird":["White-throated Sparrow"],"family":["New World Sparrows and Allies"],"class":["764"],"trial_type":"image-multi-choice","trial_index":142,"time_elapsed":3783174,"internal_node_id":"0.0-1.0-141.0"},{"rt":3310,"responses":"{\"Q0\":\"Magnolia Warbler\"}","bird":["Magnolia Warbler"],"family":["Wood-Warblers"],"class":["758"],"trial_type":"image-multi-choice","trial_index":143,"time_elapsed":3787493,"internal_node_id":"0.0-1.0-142.0"},{"rt":4629,"responses":"{\"Q0\":\"Blackburnian Warbler\"}","bird":["Blackburnian Warbler"],"family":["Wood-Warblers"],"class":["874"],"trial_type":"image-multi-choice","trial_index":144,"time_elapsed":3793129,"internal_node_id":"0.0-1.0-143.0"},{"rt":5773,"responses":"{\"Q0\":\"Lark Sparrow\"}","bird":["Lark Sparrow"],"family":["New World Sparrows and Allies"],"class":["899"],"trial_type":"image-multi-choice","trial_index":145,"time_elapsed":3799914,"internal_node_id":"0.0-1.0-144.0"},{"rt":10834,"responses":"{\"Q0\":\"American Tree Sparrow\"}","bird":["Song Sparrow"],"family":["New World Sparrows and Allies"],"class":["902"],"trial_type":"image-multi-choice","trial_index":146,"time_elapsed":3811759,"internal_node_id":"0.0-1.0-145.0"},{"rt":2750,"responses":"{\"Q0\":\"White-crowned Sparrow\"}","bird":["White-crowned Sparrow"],"family":["New World Sparrows and Allies"],"class":["766"],"trial_type":"image-multi-choice","trial_index":147,"time_elapsed":3815520,"internal_node_id":"0.0-1.0-146.0"},{"rt":9322,"responses":"{\"Q0\":\"Vesper Sparrow\"}","bird":["Chipping Sparrow"],"family":["New World Sparrows and Allies"],"class":["769"],"trial_type":"image-multi-choice","trial_index":148,"time_elapsed":3825852,"internal_node_id":"0.0-1.0-147.0"},{"rt":3287,"responses":"{\"Q0\":\"Swamp Sparrow\"}","bird":["Swamp Sparrow"],"family":["New World Sparrows and Allies"],"class":["904"],"trial_type":"image-multi-choice","trial_index":149,"time_elapsed":3830149,"internal_node_id":"0.0-1.0-148.0"},{"rt":3659,"responses":"{\"Q0\":\"Fox Sparrow\"}","bird":["Fox Sparrow"],"family":["New World Sparrows and Allies"],"class":["901"],"trial_type":"image-multi-choice","trial_index":150,"time_elapsed":3834821,"internal_node_id":"0.0-1.0-149.0"},{"rt":3048,"responses":"{\"Q0\":\"Yellow Warbler\"}","bird":["Yellow Warbler"],"family":["Wood-Warblers"],"class":["875"],"trial_type":"image-multi-choice","trial_index":151,"time_elapsed":3838881,"internal_node_id":"0.0-1.0-150.0"},{"rt":3364,"responses":"{\"Q0\":\"White-crowned Sparrow\"}","bird":["White-crowned Sparrow"],"family":["New World Sparrows and Allies"],"class":["766"],"trial_type":"image-multi-choice","trial_index":152,"time_elapsed":3843252,"internal_node_id":"0.0-1.0-151.0"},{"rt":6327,"responses":"{\"Q0\":\"Song Sparrow\"}","bird":["Song Sparrow"],"family":["New World Sparrows and Allies"],"class":["902"],"trial_type":"image-multi-choice","trial_index":153,"time_elapsed":3850587,"internal_node_id":"0.0-1.0-152.0"},{"rt":3240,"responses":"{\"Q0\":\"Northern Waterthrush\"}","bird":["Northern Waterthrush"],"family":["Wood-Warblers"],"class":["862"],"trial_type":"image-multi-choice","trial_index":154,"time_elapsed":3854839,"internal_node_id":"0.0-1.0-153.0"},{"rt":2412,"responses":"{\"Q0\":\"White-crowned Sparrow\"}","bird":["White-crowned Sparrow"],"family":["New World Sparrows and Allies"],"class":["766"],"trial_type":"image-multi-choice","trial_index":155,"time_elapsed":3858259,"internal_node_id":"0.0-1.0-154.0"},{"rt":2191,"responses":"{\"Q0\":\"Yellow Warbler\"}","bird":["Yellow Warbler"],"family":["Wood-Warblers"],"class":["875"],"trial_type":"image-multi-choice","trial_index":156,"time_elapsed":3861457,"internal_node_id":"0.0-1.0-155.0"},{"rt":2790,"responses":"{\"Q0\":\"White-throated Sparrow\"}","bird":["White-throated Sparrow"],"family":["New World Sparrows and Allies"],"class":["764"],"trial_type":"image-multi-choice","trial_index":157,"time_elapsed":3865259,"internal_node_id":"0.0-1.0-156.0"},{"rt":2308,"responses":"{\"Q0\":\"White-crowned Sparrow\"}","bird":["White-crowned Sparrow"],"family":["New World Sparrows and Allies"],"class":["766"],"trial_type":"image-multi-choice","trial_index":158,"time_elapsed":3868575,"internal_node_id":"0.0-1.0-157.0"},{"rt":3128,"responses":"{\"Q0\":\"Blackburnian Warbler\"}","bird":["Townsend's Warbler"],"family":["Wood-Warblers"],"class":["881"],"trial_type":"image-multi-choice","trial_index":159,"time_elapsed":3872715,"internal_node_id":"0.0-1.0-158.0"},{"rt":5291,"responses":"{\"Q0\":\"Tennessee Warbler\"}","bird":["Tennessee Warbler"],"family":["Wood-Warblers"],"class":["866"],"trial_type":"image-multi-choice","trial_index":160,"time_elapsed":3879018,"internal_node_id":"0.0-1.0-159.0"},{"rt":3495,"responses":"{\"Q0\":\"White-throated Sparrow\"}","bird":["White-throated Sparrow"],"family":["New World Sparrows and Allies"],"class":["764"],"trial_type":"image-multi-choice","trial_index":161,"time_elapsed":3883521,"internal_node_id":"0.0-1.0-160.0"},{"rt":3091,"responses":"{\"Q0\":\"Fox Sparrow\"}","bird":["Fox Sparrow"],"family":["New World Sparrows and Allies"],"class":["901"],"trial_type":"image-multi-choice","trial_index":162,"time_elapsed":3887622,"internal_node_id":"0.0-1.0-161.0"},{"rt":3125,"responses":"{\"Q0\":\"Song Sparrow\"}","bird":["Song Sparrow"],"family":["New World Sparrows and Allies"],"class":["902"],"trial_type":"image-multi-choice","trial_index":163,"time_elapsed":3891754,"internal_node_id":"0.0-1.0-162.0"},{"rt":2673,"responses":"{\"Q0\":\"White-crowned Sparrow\"}","bird":["White-crowned Sparrow"],"family":["New World Sparrows and Allies"],"class":["766"],"trial_type":"image-multi-choice","trial_index":164,"time_elapsed":3895434,"internal_node_id":"0.0-1.0-163.0"},{"rt":3049,"responses":"{\"Q0\":\"Song Sparrow\"}","bird":["Song Sparrow"],"family":["New World Sparrows and Allies"],"class":["902"],"trial_type":"image-multi-choice","trial_index":165,"time_elapsed":3899494,"internal_node_id":"0.0-1.0-164.0"},{"rt":4707,"responses":"{\"Q0\":\"American Tree Sparrow\"}","bird":["American Tree Sparrow"],"family":["New World Sparrows and Allies"],"class":["894"],"trial_type":"image-multi-choice","trial_index":166,"time_elapsed":3905213,"internal_node_id":"0.0-1.0-165.0"},{"rt":4313,"responses":"{\"Q0\":\"Orange-crowned Warbler\"}","bird":["Orange-crowned Warbler"],"family":["Wood-Warblers"],"class":["867"],"trial_type":"image-multi-choice","trial_index":167,"time_elapsed":3910537,"internal_node_id":"0.0-1.0-166.0"},{"rt":4881,"responses":"{\"Q0\":\"Lincoln's Sparrow\"}","bird":["Lincoln's Sparrow"],"family":["New World Sparrows and Allies"],"class":["903"],"trial_type":"image-multi-choice","trial_index":168,"time_elapsed":3916430,"internal_node_id":"0.0-1.0-167.0"},{"rt":3645,"responses":"{\"Q0\":\"Blackburnian Warbler\"}","bird":["Blackburnian Warbler"],"family":["Wood-Warblers"],"class":["874"],"trial_type":"image-multi-choice","trial_index":169,"time_elapsed":3921085,"internal_node_id":"0.0-1.0-168.0"},{"rt":2938,"responses":"{\"Q0\":\"White-throated Sparrow\"}","bird":["White-throated Sparrow"],"family":["New World Sparrows and Allies"],"class":["764"],"trial_type":"image-multi-choice","trial_index":170,"time_elapsed":3925032,"internal_node_id":"0.0-1.0-169.0"},{"rt":4035,"responses":"{\"Q0\":\"Fox Sparrow\"}","bird":["Fox Sparrow"],"family":["New World Sparrows and Allies"],"class":["901"],"trial_type":"image-multi-choice","trial_index":171,"time_elapsed":3930075,"internal_node_id":"0.0-1.0-170.0"},{"rt":4910,"responses":"{\"Q0\":\"Chipping Sparrow\"}","bird":["Chipping Sparrow"],"family":["New World Sparrows and Allies"],"class":["769"],"trial_type":"image-multi-choice","trial_index":172,"time_elapsed":3935994,"internal_node_id":"0.0-1.0-171.0"},{"rt":4840,"responses":"{\"Q0\":\"Swamp Sparrow\"}","bird":["Swamp Sparrow"],"family":["New World Sparrows and Allies"],"class":["904"],"trial_type":"image-multi-choice","trial_index":173,"time_elapsed":3941845,"internal_node_id":"0.0-1.0-172.0"},{"rt":5330,"responses":"{\"Q0\":\"Lincoln's Sparrow\"}","bird":["Lincoln's Sparrow"],"family":["New World Sparrows and Allies"],"class":["903"],"trial_type":"image-multi-choice","trial_index":174,"time_elapsed":3948185,"internal_node_id":"0.0-1.0-173.0"},{"rt":2978,"responses":"{\"Q0\":\"Swamp Sparrow\"}","bird":["Swamp Sparrow"],"family":["New World Sparrows and Allies"],"class":["904"],"trial_type":"image-multi-choice","trial_index":175,"time_elapsed":3952172,"internal_node_id":"0.0-1.0-174.0"},{"rt":3037,"responses":"{\"Q0\":\"Blackburnian Warbler\"}","bird":["Townsend's Warbler"],"family":["Wood-Warblers"],"class":["881"],"trial_type":"image-multi-choice","trial_index":176,"time_elapsed":3956221,"internal_node_id":"0.0-1.0-175.0"},{"rt":5407,"responses":"{\"Q0\":\"American Tree Sparrow\"}","bird":["American Tree Sparrow"],"family":["New World Sparrows and Allies"],"class":["894"],"trial_type":"image-multi-choice","trial_index":177,"time_elapsed":3962637,"internal_node_id":"0.0-1.0-176.0"},{"rt":3423,"responses":"{\"Q0\":\"Fox Sparrow\"}","bird":["Fox Sparrow"],"family":["New World Sparrows and Allies"],"class":["901"],"trial_type":"image-multi-choice","trial_index":178,"time_elapsed":3967067,"internal_node_id":"0.0-1.0-177.0"},{"rt":3844,"responses":"{\"Q0\":\"Lincoln's Sparrow\"}","bird":["Lincoln's Sparrow"],"family":["New World Sparrows and Allies"],"class":["903"],"trial_type":"image-multi-choice","trial_index":179,"time_elapsed":3971919,"internal_node_id":"0.0-1.0-178.0"},{"rt":5789,"responses":"{\"Q0\":\"Magnolia Warbler\"}","bird":["Magnolia Warbler"],"family":["Wood-Warblers"],"class":["758"],"trial_type":"image-multi-choice","trial_index":180,"time_elapsed":3981965,"internal_node_id":"0.0-1.0-179.0"},{"rt":5023,"responses":"{\"Q0\":\"Tennessee Warbler\"}","bird":["Orange-crowned Warbler"],"family":["Wood-Warblers"],"class":["867"],"trial_type":"image-multi-choice","trial_index":181,"time_elapsed":3987998,"internal_node_id":"0.0-1.0-180.0"},{"rt":6150,"responses":"{\"Q0\":\"Tennessee Warbler\"}","bird":["Tennessee Warbler"],"family":["Wood-Warblers"],"class":["866"],"trial_type":"image-multi-choice","trial_index":182,"time_elapsed":3995156,"internal_node_id":"0.0-1.0-181.0"},{"rt":3296,"responses":"{\"Q0\":\"Vesper Sparrow\"}","bird":["Vesper Sparrow"],"family":["New World Sparrows and Allies"],"class":["898"],"trial_type":"image-multi-choice","trial_index":183,"time_elapsed":3999479,"internal_node_id":"0.0-1.0-182.0"},{"rt":3326,"responses":"{\"Q0\":\"Blackburnian Warbler\"}","bird":["Blackburnian Warbler"],"family":["Wood-Warblers"],"class":["874"],"trial_type":"image-multi-choice","trial_index":184,"time_elapsed":4003815,"internal_node_id":"0.0-1.0-183.0"},{"rt":5936,"responses":"{\"Q0\":\"Lincoln's Sparrow\"}","bird":["Lincoln's Sparrow"],"family":["New World Sparrows and Allies"],"class":["903"],"trial_type":"image-multi-choice","trial_index":185,"time_elapsed":4010765,"internal_node_id":"0.0-1.0-184.0"},{"rt":3507,"responses":"{\"Q0\":\"Townsend's Warbler\"}","bird":["Townsend's Warbler"],"family":["Wood-Warblers"],"class":["881"],"trial_type":"image-multi-choice","trial_index":186,"time_elapsed":4015281,"internal_node_id":"0.0-1.0-185.0"},{"rt":3980,"responses":"{\"Q0\":\"Ovenbird\"}","bird":["Ovenbird"],"family":["Wood-Warblers"],"class":["860"],"trial_type":"image-multi-choice","trial_index":187,"time_elapsed":4020273,"internal_node_id":"0.0-1.0-186.0"},{"rt":3828,"responses":"{\"Q0\":\"Orange-crowned Warbler\"}","bird":["Orange-crowned Warbler"],"family":["Wood-Warblers"],"class":["867"],"trial_type":"image-multi-choice","trial_index":188,"time_elapsed":4025113,"internal_node_id":"0.0-1.0-187.0"},{"rt":4737,"responses":"{\"Q0\":\"Chipping Sparrow\"}","bird":["Chipping Sparrow"],"family":["New World Sparrows and Allies"],"class":["769"],"trial_type":"image-multi-choice","trial_index":189,"time_elapsed":4030859,"internal_node_id":"0.0-1.0-188.0"},{"rt":3775,"responses":"{\"Q0\":\"American Tree Sparrow\"}","bird":["American Tree Sparrow"],"family":["New World Sparrows and Allies"],"class":["894"],"trial_type":"image-multi-choice","trial_index":190,"time_elapsed":4035646,"internal_node_id":"0.0-1.0-189.0"},{"rt":4503,"responses":"{\"Q0\":\"Vesper Sparrow\"}","bird":["Vesper Sparrow"],"family":["New World Sparrows and Allies"],"class":["898"],"trial_type":"image-multi-choice","trial_index":191,"time_elapsed":4041160,"internal_node_id":"0.0-1.0-190.0"},{"rt":3693,"responses":"{\"Q0\":\"Lincoln's Sparrow\"}","bird":["Lincoln's Sparrow"],"family":["New World Sparrows and Allies"],"class":["903"],"trial_type":"image-multi-choice","trial_index":192,"time_elapsed":4045862,"internal_node_id":"0.0-1.0-191.0"},{"rt":3984,"responses":"{\"Q0\":\"Tennessee Warbler\"}","bird":["Tennessee Warbler"],"family":["Wood-Warblers"],"class":["866"],"trial_type":"image-multi-choice","trial_index":193,"time_elapsed":4050856,"internal_node_id":"0.0-1.0-192.0"},{"rt":3757,"responses":"{\"Q0\":\"American Tree Sparrow\"}","bird":["American Tree Sparrow"],"family":["New World Sparrows and Allies"],"class":["894"],"trial_type":"image-multi-choice","trial_index":194,"time_elapsed":4055622,"internal_node_id":"0.0-1.0-193.0"},{"rt":3075,"responses":"{\"Q0\":\"Lark Sparrow\"}","bird":["Lark Sparrow"],"family":["New World Sparrows and Allies"],"class":["899"],"trial_type":"image-multi-choice","trial_index":195,"time_elapsed":4059706,"internal_node_id":"0.0-1.0-194.0"},{"rt":3533,"responses":"{\"Q0\":\"Tennessee Warbler\"}","bird":["Tennessee Warbler"],"family":["Wood-Warblers"],"class":["866"],"trial_type":"image-multi-choice","trial_index":196,"time_elapsed":4064248,"internal_node_id":"0.0-1.0-195.0"},{"rt":3597,"responses":"{\"Q0\":\"Northern Waterthrush\"}","bird":["Northern Waterthrush"],"family":["Wood-Warblers"],"class":["862"],"trial_type":"image-multi-choice","trial_index":197,"time_elapsed":4068859,"internal_node_id":"0.0-1.0-196.0"},{"rt":4314,"responses":"{\"Q0\":\"White-throated Sparrow\"}","bird":["White-throated Sparrow"],"family":["New World Sparrows and Allies"],"class":["764"],"trial_type":"image-multi-choice","trial_index":198,"time_elapsed":4074182,"internal_node_id":"0.0-1.0-197.0"},{"rt":5575,"responses":"{\"Q0\":\"Yellow Warbler\"}","bird":["Yellow Warbler"],"family":["Wood-Warblers"],"class":["875"],"trial_type":"image-multi-choice","trial_index":199,"time_elapsed":4080769,"internal_node_id":"0.0-1.0-198.0"},{"rt":4261,"responses":"{\"Q0\":\"White-crowned Sparrow\"}","bird":["White-crowned Sparrow"],"family":["New World Sparrows and Allies"],"class":["766"],"trial_type":"image-multi-choice","trial_index":200,"time_elapsed":4086041,"internal_node_id":"0.0-1.0-199.0"},{"rt":6490,"responses":"{\"Q0\":\"American Tree Sparrow\"}","bird":["American Tree Sparrow"],"family":["New World Sparrows and Allies"],"class":["894"],"trial_type":"image-multi-choice","trial_index":201,"time_elapsed":4093543,"internal_node_id":"0.0-1.0-200.0"},{"rt":3253,"responses":"{\"Q0\":\"Ovenbird\"}","bird":["Ovenbird"],"family":["Wood-Warblers"],"class":["860"],"trial_type":"image-multi-choice","trial_index":202,"time_elapsed":4097803,"internal_node_id":"0.0-1.0-201.0"},{"rt":11511,"responses":"{\"Q0\":\"Swamp Sparrow\"}","bird":["Magnolia Warbler"],"family":["Wood-Warblers"],"class":["758"],"trial_type":"image-multi-choice","trial_index":203,"time_elapsed":4110324,"internal_node_id":"0.0-1.0-202.0"},{"rt":3367,"responses":"{\"Q0\":\"Black-and-white Warbler\"}","bird":["Black-and-white Warbler"],"family":["Wood-Warblers"],"class":["864"],"trial_type":"image-multi-choice","trial_index":204,"time_elapsed":4114704,"internal_node_id":"0.0-1.0-203.0"},{"rt":2537,"responses":"{\"Q0\":\"Northern Waterthrush\"}","bird":["Northern Waterthrush"],"family":["Wood-Warblers"],"class":["862"],"trial_type":"image-multi-choice","trial_index":205,"time_elapsed":4118250,"internal_node_id":"0.0-1.0-204.0"},{"rt":4559,"responses":"{\"Q0\":\"American Tree Sparrow\"}","bird":["American Tree Sparrow"],"family":["New World Sparrows and Allies"],"class":["894"],"trial_type":"image-multi-choice","trial_index":206,"time_elapsed":4123821,"internal_node_id":"0.0-1.0-205.0"},{"rt":5463,"responses":"{\"Q0\":\"Magnolia Warbler\"}","bird":["Magnolia Warbler"],"family":["Wood-Warblers"],"class":["758"],"trial_type":"image-multi-choice","trial_index":207,"time_elapsed":4130295,"internal_node_id":"0.0-1.0-206.0"},{"rt":3738,"responses":"{\"Q0\":\"Blackburnian Warbler\"}","bird":["Blackburnian Warbler"],"family":["Wood-Warblers"],"class":["874"],"trial_type":"image-multi-choice","trial_index":208,"time_elapsed":4135041,"internal_node_id":"0.0-1.0-207.0"},{"rt":2707,"responses":"{\"Q0\":\"Swamp Sparrow\"}","bird":["Swamp Sparrow"],"family":["New World Sparrows and Allies"],"class":["904"],"trial_type":"image-multi-choice","trial_index":209,"time_elapsed":4138759,"internal_node_id":"0.0-1.0-208.0"},{"rt":2573,"responses":"{\"Q0\":\"American Tree Sparrow\"}","bird":["American Tree Sparrow"],"family":["New World Sparrows and Allies"],"class":["894"],"trial_type":"image-multi-choice","trial_index":210,"time_elapsed":4142345,"internal_node_id":"0.0-1.0-209.0"},{"rt":2159,"responses":"{\"Q0\":\"Ovenbird\"}","bird":["Ovenbird"],"family":["Wood-Warblers"],"class":["860"],"trial_type":"image-multi-choice","trial_index":211,"time_elapsed":4145515,"internal_node_id":"0.0-1.0-210.0"},{"rt":4399,"responses":"{\"Q0\":\"Swamp Sparrow\"}","bird":["Swamp Sparrow"],"family":["New World Sparrows and Allies"],"class":["904"],"trial_type":"image-multi-choice","trial_index":212,"time_elapsed":4150927,"internal_node_id":"0.0-1.0-211.0"},{"rt":2988,"responses":"{\"Q0\":\"Swamp Sparrow\"}","bird":["Song Sparrow"],"family":["New World Sparrows and Allies"],"class":["902"],"trial_type":"image-multi-choice","trial_index":213,"time_elapsed":4154923,"internal_node_id":"0.0-1.0-212.0"},{"rt":3073,"responses":"{\"Q0\":\"Blackburnian Warbler\"}","bird":["Blackburnian Warbler"],"family":["Wood-Warblers"],"class":["874"],"trial_type":"image-multi-choice","trial_index":214,"time_elapsed":4159008,"internal_node_id":"0.0-1.0-213.0"},{"rt":2789,"responses":"{\"Q0\":\"Vesper Sparrow\"}","bird":["Vesper Sparrow"],"family":["New World Sparrows and Allies"],"class":["898"],"trial_type":"image-multi-choice","trial_index":215,"time_elapsed":4162812,"internal_node_id":"0.0-1.0-214.0"},{"rt":2474,"responses":"{\"Q0\":\"Blackburnian Warbler\"}","bird":["Blackburnian Warbler"],"family":["Wood-Warblers"],"class":["874"],"trial_type":"image-multi-choice","trial_index":216,"time_elapsed":4166294,"internal_node_id":"0.0-1.0-215.0"},{"rt":4614,"responses":"{\"Q0\":\"Song Sparrow\"}","bird":["Song Sparrow"],"family":["New World Sparrows and Allies"],"class":["902"],"trial_type":"image-multi-choice","trial_index":217,"time_elapsed":4171916,"internal_node_id":"0.0-1.0-216.0"},{"rt":6277,"responses":"{\"Q0\":\"Orange-crowned Warbler\"}","bird":["Tennessee Warbler"],"family":["Wood-Warblers"],"class":["866"],"trial_type":"image-multi-choice","trial_index":218,"time_elapsed":4179204,"internal_node_id":"0.0-1.0-217.0"},{"rt":3519,"responses":"{\"Q0\":\"Black-and-white Warbler\"}","bird":["Black-and-white Warbler"],"family":["Wood-Warblers"],"class":["864"],"trial_type":"image-multi-choice","trial_index":219,"time_elapsed":4183732,"internal_node_id":"0.0-1.0-218.0"},{"rt":2363,"responses":"{\"Q0\":\"Ovenbird\"}","bird":["Ovenbird"],"family":["Wood-Warblers"],"class":["860"],"trial_type":"image-multi-choice","trial_index":220,"time_elapsed":4187103,"internal_node_id":"0.0-1.0-219.0"},{"rt":2173,"responses":"{\"Q0\":\"White-throated Sparrow\"}","bird":["White-throated Sparrow"],"family":["New World Sparrows and Allies"],"class":["764"],"trial_type":"image-multi-choice","trial_index":221,"time_elapsed":4190286,"internal_node_id":"0.0-1.0-220.0"},{"rt":2863,"responses":"{\"Q0\":\"Vesper Sparrow\"}","bird":["Vesper Sparrow"],"family":["New World Sparrows and Allies"],"class":["898"],"trial_type":"image-multi-choice","trial_index":222,"time_elapsed":4194159,"internal_node_id":"0.0-1.0-221.0"},{"rt":2873,"responses":"{\"Q0\":\"American Tree Sparrow\"}","bird":["American Tree Sparrow"],"family":["New World Sparrows and Allies"],"class":["894"],"trial_type":"image-multi-choice","trial_index":223,"time_elapsed":4198040,"internal_node_id":"0.0-1.0-222.0"},{"rt":1677,"responses":"{\"Q0\":\"Yellow Warbler\"}","bird":["Yellow Warbler"],"family":["Wood-Warblers"],"class":["875"],"trial_type":"image-multi-choice","trial_index":224,"time_elapsed":4200727,"internal_node_id":"0.0-1.0-223.0"},{"rt":2369,"responses":"{\"Q0\":\"Northern Waterthrush\"}","bird":["Northern Waterthrush"],"family":["Wood-Warblers"],"class":["862"],"trial_type":"image-multi-choice","trial_index":225,"time_elapsed":4204106,"internal_node_id":"0.0-1.0-224.0"},{"rt":2479,"responses":"{\"Q0\":\"Blackburnian Warbler\"}","bird":["Blackburnian Warbler"],"family":["Wood-Warblers"],"class":["874"],"trial_type":"image-multi-choice","trial_index":226,"time_elapsed":4207595,"internal_node_id":"0.0-1.0-225.0"},{"rt":2498,"responses":"{\"Q0\":\"White-throated Sparrow\"}","bird":["White-throated Sparrow"],"family":["New World Sparrows and Allies"],"class":["764"],"trial_type":"image-multi-choice","trial_index":227,"time_elapsed":4211103,"internal_node_id":"0.0-1.0-226.0"},{"rt":3863,"responses":"{\"Q0\":\"Song Sparrow\"}","bird":["Song Sparrow"],"family":["New World Sparrows and Allies"],"class":["902"],"trial_type":"image-multi-choice","trial_index":228,"time_elapsed":4215974,"internal_node_id":"0.0-1.0-227.0"},{"rt":5324,"responses":"{\"Q0\":\"Ovenbird\"}","bird":["Ovenbird"],"family":["Wood-Warblers"],"class":["860"],"trial_type":"image-multi-choice","trial_index":229,"time_elapsed":4222306,"internal_node_id":"0.0-1.0-228.0"},{"rt":5596,"responses":"{\"Q0\":\"Townsend's Warbler\"}","bird":["Townsend's Warbler"],"family":["Wood-Warblers"],"class":["881"],"trial_type":"image-multi-choice","trial_index":230,"time_elapsed":4228914,"internal_node_id":"0.0-1.0-229.0"},{"rt":8442,"responses":"{\"Q0\":\"Yellow Warbler\"}","bird":["Nashville Warbler"],"family":["Wood-Warblers"],"class":["868"],"trial_type":"image-multi-choice","trial_index":231,"time_elapsed":4238363,"internal_node_id":"0.0-1.0-230.0"},{"rt":5058,"responses":"{\"Q0\":\"Fox Sparrow\"}","bird":["Fox Sparrow"],"family":["New World Sparrows and Allies"],"class":["901"],"trial_type":"image-multi-choice","trial_index":232,"time_elapsed":4244432,"internal_node_id":"0.0-1.0-231.0"},{"rt":3557,"responses":"{\"Q0\":\"Ovenbird\"}","bird":["Ovenbird"],"family":["Wood-Warblers"],"class":["860"],"trial_type":"image-multi-choice","trial_index":233,"time_elapsed":4248999,"internal_node_id":"0.0-1.0-232.0"},{"rt":4050,"responses":"{\"Q0\":\"Magnolia Warbler\"}","bird":["Magnolia Warbler"],"family":["Wood-Warblers"],"class":["758"],"trial_type":"image-multi-choice","trial_index":234,"time_elapsed":4254057,"internal_node_id":"0.0-1.0-233.0"},{"rt":3834,"responses":"{\"Q0\":\"American Tree Sparrow\"}","bird":["American Tree Sparrow"],"family":["New World Sparrows and Allies"],"class":["894"],"trial_type":"image-multi-choice","trial_index":235,"time_elapsed":4258902,"internal_node_id":"0.0-1.0-234.0"},{"rt":2653,"responses":"{\"Q0\":\"Blackburnian Warbler\"}","bird":["Blackburnian Warbler"],"family":["Wood-Warblers"],"class":["874"],"trial_type":"image-multi-choice","trial_index":236,"time_elapsed":4262564,"internal_node_id":"0.0-1.0-235.0"},{"rt":3647,"responses":"{\"Q0\":\"Chipping Sparrow\"}","bird":["Chipping Sparrow"],"family":["New World Sparrows and Allies"],"class":["769"],"trial_type":"image-multi-choice","trial_index":237,"time_elapsed":4267221,"internal_node_id":"0.0-1.0-236.0"},{"rt":4668,"responses":"{\"Q0\":\"Fox Sparrow\"}","bird":["Fox Sparrow"],"family":["New World Sparrows and Allies"],"class":["901"],"trial_type":"image-multi-choice","trial_index":238,"time_elapsed":4272898,"internal_node_id":"0.0-1.0-237.0"},{"rt":3052,"responses":"{\"Q0\":\"Vesper Sparrow\"}","bird":["Vesper Sparrow"],"family":["New World Sparrows and Allies"],"class":["898"],"trial_type":"image-multi-choice","trial_index":239,"time_elapsed":4276958,"internal_node_id":"0.0-1.0-238.0"},{"rt":2608,"responses":"{\"Q0\":\"Northern Waterthrush\"}","bird":["Northern Waterthrush"],"family":["Wood-Warblers"],"class":["862"],"trial_type":"image-multi-choice","trial_index":240,"time_elapsed":4461122,"internal_node_id":"0.0-1.0-239.0"},{"rt":3169,"responses":"{\"Q0\":\"Lark Sparrow\"}","bird":["Lark Sparrow"],"family":["New World Sparrows and Allies"],"class":["899"],"trial_type":"image-multi-choice","trial_index":241,"time_elapsed":4465301,"internal_node_id":"0.0-1.0-240.0"},{"rt":3163,"responses":"{\"Q0\":\"Orange-crowned Warbler\"}","bird":["Nashville Warbler"],"family":["Wood-Warblers"],"class":["868"],"trial_type":"image-multi-choice","trial_index":242,"time_elapsed":4469476,"internal_node_id":"0.0-1.0-241.0"},{"rt":2202,"responses":"{\"Q0\":\"Ovenbird\"}","bird":["Ovenbird"],"family":["Wood-Warblers"],"class":["860"],"trial_type":"image-multi-choice","trial_index":243,"time_elapsed":4472685,"internal_node_id":"0.0-1.0-242.0"},{"rt":2394,"responses":"{\"Q0\":\"Northern Waterthrush\"}","bird":["Northern Waterthrush"],"family":["Wood-Warblers"],"class":["862"],"trial_type":"image-multi-choice","trial_index":244,"time_elapsed":4476088,"internal_node_id":"0.0-1.0-243.0"},{"rt":3296,"responses":"{\"Q0\":\"Orange-crowned Warbler\"}","bird":["Orange-crowned Warbler"],"family":["Wood-Warblers"],"class":["867"],"trial_type":"image-multi-choice","trial_index":245,"time_elapsed":4480391,"internal_node_id":"0.0-1.0-244.0"},{"rt":3967,"responses":"{\"Q0\":\"Chipping Sparrow\"}","bird":["Chipping Sparrow"],"family":["New World Sparrows and Allies"],"class":["769"],"trial_type":"image-multi-choice","trial_index":246,"time_elapsed":4485371,"internal_node_id":"0.0-1.0-245.0"},{"rt":6287,"responses":"{\"Q0\":\"Tennessee Warbler\"}","bird":["Tennessee Warbler"],"family":["Wood-Warblers"],"class":["866"],"trial_type":"image-multi-choice","trial_index":247,"time_elapsed":4492665,"internal_node_id":"0.0-1.0-246.0"},{"rt":3270,"responses":"{\"Q0\":\"Yellow Warbler\"}","bird":["Yellow Warbler"],"family":["Wood-Warblers"],"class":["875"],"trial_type":"image-multi-choice","trial_index":248,"time_elapsed":4496944,"internal_node_id":"0.0-1.0-247.0"},{"rt":6464,"responses":"{\"Q0\":\"Lincoln's Sparrow\"}","bird":["Lincoln's Sparrow"],"family":["New World Sparrows and Allies"],"class":["903"],"trial_type":"image-multi-choice","trial_index":249,"time_elapsed":4504417,"internal_node_id":"0.0-1.0-248.0"},{"rt":4285,"responses":"{\"Q0\":\"Vesper Sparrow\"}","bird":["Vesper Sparrow"],"family":["New World Sparrows and Allies"],"class":["898"],"trial_type":"image-multi-choice","trial_index":250,"time_elapsed":4509710,"internal_node_id":"0.0-1.0-249.0"},{"rt":2863,"responses":"{\"Q0\":\"Black-and-white Warbler\"}","bird":["Black-and-white Warbler"],"family":["Wood-Warblers"],"class":["864"],"trial_type":"image-multi-choice","trial_index":251,"time_elapsed":4513587,"internal_node_id":"0.0-1.0-250.0"},{"rt":2468,"responses":"{\"Q0\":\"Song Sparrow\"}","bird":["Song Sparrow"],"family":["New World Sparrows and Allies"],"class":["902"],"trial_type":"image-multi-choice","trial_index":252,"time_elapsed":4517066,"internal_node_id":"0.0-1.0-251.0"},{"rt":3974,"responses":"{\"Q0\":\"Chipping Sparrow\"}","bird":["Chipping Sparrow"],"family":["New World Sparrows and Allies"],"class":["769"],"trial_type":"image-multi-choice","trial_index":253,"time_elapsed":4522048,"internal_node_id":"0.0-1.0-252.0"},{"rt":4177,"responses":"{\"Q0\":\"Magnolia Warbler\"}","bird":["Magnolia Warbler"],"family":["Wood-Warblers"],"class":["758"],"trial_type":"image-multi-choice","trial_index":254,"time_elapsed":4527232,"internal_node_id":"0.0-1.0-253.0"},{"rt":5665,"responses":"{\"Q0\":\"Lincoln's Sparrow\"}","bird":["Lincoln's Sparrow"],"family":["New World Sparrows and Allies"],"class":["903"],"trial_type":"image-multi-choice","trial_index":255,"time_elapsed":4533906,"internal_node_id":"0.0-1.0-254.0"},{"rt":2390,"responses":"{\"Q0\":\"White-throated Sparrow\"}","bird":["White-throated Sparrow"],"family":["New World Sparrows and Allies"],"class":["764"],"trial_type":"image-multi-choice","trial_index":256,"time_elapsed":4537307,"internal_node_id":"0.0-1.0-255.0"},{"rt":3199,"responses":"{\"Q0\":\"Fox Sparrow\"}","bird":["Fox Sparrow"],"family":["New World Sparrows and Allies"],"class":["901"],"trial_type":"image-multi-choice","trial_index":257,"time_elapsed":4541517,"internal_node_id":"0.0-1.0-256.0"},{"rt":2776,"responses":"{\"Q0\":\"Black-and-white Warbler\"}","bird":["Black-and-white Warbler"],"family":["Wood-Warblers"],"class":["864"],"trial_type":"image-multi-choice","trial_index":258,"time_elapsed":4545303,"internal_node_id":"0.0-1.0-257.0"},{"rt":3747,"responses":"{\"Q0\":\"Chipping Sparrow\"}","bird":["Chipping Sparrow"],"family":["New World Sparrows and Allies"],"class":["769"],"trial_type":"image-multi-choice","trial_index":259,"time_elapsed":4550062,"internal_node_id":"0.0-1.0-258.0"},{"rt":6245,"responses":"{\"Q0\":\"Tennessee Warbler\"}","bird":["Orange-crowned Warbler"],"family":["Wood-Warblers"],"class":["867"],"trial_type":"image-multi-choice","trial_index":260,"time_elapsed":4557315,"internal_node_id":"0.0-1.0-259.0"},{"rt":3095,"responses":"{\"Q0\":\"Lark Sparrow\"}","bird":["Lark Sparrow"],"family":["New World Sparrows and Allies"],"class":["899"],"trial_type":"image-multi-choice","trial_index":261,"time_elapsed":4561422,"internal_node_id":"0.0-1.0-260.0"},{"rt":3288,"responses":"{\"Q0\":\"Lincoln's Sparrow\"}","bird":["Lincoln's Sparrow"],"family":["New World Sparrows and Allies"],"class":["903"],"trial_type":"image-multi-choice","trial_index":262,"time_elapsed":4565720,"internal_node_id":"0.0-1.0-261.0"},{"rt":4391,"responses":"{\"Q0\":\"Northern Waterthrush\"}","bird":["Northern Waterthrush"],"family":["Wood-Warblers"],"class":["862"],"trial_type":"image-multi-choice","trial_index":263,"time_elapsed":4571120,"internal_node_id":"0.0-1.0-262.0"},{"rt":3596,"responses":"{\"Q0\":\"Nashville Warbler\"}","bird":["Nashville Warbler"],"family":["Wood-Warblers"],"class":["868"],"trial_type":"image-multi-choice","trial_index":264,"time_elapsed":4575723,"internal_node_id":"0.0-1.0-263.0"},{"rt":3054,"responses":"{\"Q0\":\"Lark Sparrow\"}","bird":["Lark Sparrow"],"family":["New World Sparrows and Allies"],"class":["899"],"trial_type":"image-multi-choice","trial_index":265,"time_elapsed":4579783,"internal_node_id":"0.0-1.0-264.0"},{"rt":4289,"responses":"{\"Q0\":\"Tennessee Warbler\"}","bird":["Orange-crowned Warbler"],"family":["Wood-Warblers"],"class":["867"],"trial_type":"image-multi-choice","trial_index":266,"time_elapsed":4585082,"internal_node_id":"0.0-1.0-265.0"},{"rt":3897,"responses":"{\"Q0\":\"Magnolia Warbler\"}","bird":["Magnolia Warbler"],"family":["Wood-Warblers"],"class":["758"],"trial_type":"image-multi-choice","trial_index":267,"time_elapsed":4589991,"internal_node_id":"0.0-1.0-266.0"},{"rt":3666,"responses":"{\"Q0\":\"Orange-crowned Warbler\"}","bird":["Orange-crowned Warbler"],"family":["Wood-Warblers"],"class":["867"],"trial_type":"image-multi-choice","trial_index":268,"time_elapsed":4594665,"internal_node_id":"0.0-1.0-267.0"},{"rt":3061,"responses":"{\"Q0\":\"Yellow Warbler\"}","bird":["Yellow Warbler"],"family":["Wood-Warblers"],"class":["875"],"trial_type":"image-multi-choice","trial_index":269,"time_elapsed":4598734,"internal_node_id":"0.0-1.0-268.0"},{"rt":5140,"responses":"{\"Q0\":\"Orange-crowned Warbler\"}","bird":["Orange-crowned Warbler"],"family":["Wood-Warblers"],"class":["867"],"trial_type":"image-multi-choice","trial_index":270,"time_elapsed":4604883,"internal_node_id":"0.0-1.0-269.0"},{"rt":4090,"responses":"{\"Q0\":\"Lincoln's Sparrow\"}","bird":["Lincoln's Sparrow"],"family":["New World Sparrows and Allies"],"class":["903"],"trial_type":"image-multi-choice","trial_index":271,"time_elapsed":4609985,"internal_node_id":"0.0-1.0-270.0"},{"rt":5727,"responses":"{\"Q0\":\"Lark Sparrow\"}","bird":["Lark Sparrow"],"family":["New World Sparrows and Allies"],"class":["899"],"trial_type":"image-multi-choice","trial_index":272,"time_elapsed":4616724,"internal_node_id":"0.0-1.0-271.0"},{"rt":4422,"responses":"{\"Q0\":\"Lincoln's Sparrow\"}","bird":["Lincoln's Sparrow"],"family":["New World Sparrows and Allies"],"class":["903"],"trial_type":"image-multi-choice","trial_index":273,"time_elapsed":4622154,"internal_node_id":"0.0-1.0-272.0"},{"rt":3855,"responses":"{\"Q0\":\"Orange-crowned Warbler\"}","bird":["Nashville Warbler"],"family":["Wood-Warblers"],"class":["868"],"trial_type":"image-multi-choice","trial_index":274,"time_elapsed":4627021,"internal_node_id":"0.0-1.0-273.0"},{"rt":3350,"responses":"{\"Q0\":\"Lark Sparrow\"}","bird":["Lark Sparrow"],"family":["New World Sparrows and Allies"],"class":["899"],"trial_type":"image-multi-choice","trial_index":275,"time_elapsed":4631381,"internal_node_id":"0.0-1.0-274.0"},{"rt":3966,"responses":"{\"Q0\":\"Chipping Sparrow\"}","bird":["Chipping Sparrow"],"family":["New World Sparrows and Allies"],"class":["769"],"trial_type":"image-multi-choice","trial_index":276,"time_elapsed":4636354,"internal_node_id":"0.0-1.0-275.0"},{"rt":2895,"responses":"{\"Q0\":\"White-throated Sparrow\"}","bird":["White-throated Sparrow"],"family":["New World Sparrows and Allies"],"class":["764"],"trial_type":"image-multi-choice","trial_index":277,"time_elapsed":4640260,"internal_node_id":"0.0-1.0-276.0"},{"rt":3604,"responses":"{\"Q0\":\"Song Sparrow\"}","bird":["Song Sparrow"],"family":["New World Sparrows and Allies"],"class":["902"],"trial_type":"image-multi-choice","trial_index":278,"time_elapsed":4644877,"internal_node_id":"0.0-1.0-277.0"},{"rt":3173,"responses":"{\"Q0\":\"Ovenbird\"}","bird":["Ovenbird"],"family":["Wood-Warblers"],"class":["860"],"trial_type":"image-multi-choice","trial_index":279,"time_elapsed":4649062,"internal_node_id":"0.0-1.0-278.0"},{"rt":3529,"responses":"{\"Q0\":\"Lark Sparrow\"}","bird":["Lark Sparrow"],"family":["New World Sparrows and Allies"],"class":["899"],"trial_type":"image-multi-choice","trial_index":280,"time_elapsed":4653601,"internal_node_id":"0.0-1.0-279.0"},{"rt":5683,"responses":"{\"Q0\":\"Chipping Sparrow\"}","bird":["Chipping Sparrow"],"family":["New World Sparrows and Allies"],"class":["769"],"trial_type":"image-multi-choice","trial_index":281,"time_elapsed":4660293,"internal_node_id":"0.0-1.0-280.0"},{"rt":4392,"responses":"{\"Q0\":\"Lark Sparrow\"}","bird":["Lark Sparrow"],"family":["New World Sparrows and Allies"],"class":["899"],"trial_type":"image-multi-choice","trial_index":282,"time_elapsed":4665697,"internal_node_id":"0.0-1.0-281.0"},{"rt":7133,"responses":"{\"Q0\":\"Song Sparrow\"}","bird":["Song Sparrow"],"family":["New World Sparrows and Allies"],"class":["902"],"trial_type":"image-multi-choice","trial_index":283,"time_elapsed":4673837,"internal_node_id":"0.0-1.0-282.0"},{"rt":3519,"responses":"{\"Q0\":\"White-throated Sparrow\"}","bird":["White-throated Sparrow"],"family":["New World Sparrows and Allies"],"class":["764"],"trial_type":"image-multi-choice","trial_index":284,"time_elapsed":4678368,"internal_node_id":"0.0-1.0-283.0"},{"rt":2718,"responses":"{\"Q0\":\"Magnolia Warbler\"}","bird":["Magnolia Warbler"],"family":["Wood-Warblers"],"class":["758"],"trial_type":"image-multi-choice","trial_index":285,"time_elapsed":4682096,"internal_node_id":"0.0-1.0-284.0"},{"rt":3843,"responses":"{\"Q0\":\"Orange-crowned Warbler\"}","bird":["Orange-crowned Warbler"],"family":["Wood-Warblers"],"class":["867"],"trial_type":"image-multi-choice","trial_index":286,"time_elapsed":4686948,"internal_node_id":"0.0-1.0-285.0"},{"rt":3614,"responses":"{\"Q0\":\"Lincoln's Sparrow\"}","bird":["Lincoln's Sparrow"],"family":["New World Sparrows and Allies"],"class":["903"],"trial_type":"image-multi-choice","trial_index":287,"time_elapsed":4691575,"internal_node_id":"0.0-1.0-286.0"},{"rt":4991,"responses":"{\"Q0\":\"Lark Sparrow\"}","bird":["Lark Sparrow"],"family":["New World Sparrows and Allies"],"class":["899"],"trial_type":"image-multi-choice","trial_index":288,"time_elapsed":4697579,"internal_node_id":"0.0-1.0-287.0"},{"rt":3716,"responses":"{\"Q0\":\"Blackburnian Warbler\"}","bird":["Townsend's Warbler"],"family":["Wood-Warblers"],"class":["881"],"trial_type":"image-multi-choice","trial_index":289,"time_elapsed":4702302,"internal_node_id":"0.0-1.0-288.0"},{"rt":3034,"responses":"{\"Q0\":\"Black-and-white Warbler\"}","bird":["Black-and-white Warbler"],"family":["Wood-Warblers"],"class":["864"],"trial_type":"image-multi-choice","trial_index":290,"time_elapsed":4706347,"internal_node_id":"0.0-1.0-289.0"},{"rt":4077,"responses":"{\"Q0\":\"Tennessee Warbler\"}","bird":["Tennessee Warbler"],"family":["Wood-Warblers"],"class":["866"],"trial_type":"image-multi-choice","trial_index":291,"time_elapsed":4711435,"internal_node_id":"0.0-1.0-290.0"},{"rt":6094,"responses":"{\"Q0\":\"Chipping Sparrow\"}","bird":["American Tree Sparrow"],"family":["New World Sparrows and Allies"],"class":["894"],"trial_type":"image-multi-choice","trial_index":292,"time_elapsed":4718537,"internal_node_id":"0.0-1.0-291.0"},{"rt":2963,"responses":"{\"Q0\":\"Chipping Sparrow\"}","bird":["Chipping Sparrow"],"family":["New World Sparrows and Allies"],"class":["769"],"trial_type":"image-multi-choice","trial_index":293,"time_elapsed":4722513,"internal_node_id":"0.0-1.0-292.0"},{"rt":3985,"responses":"{\"Q0\":\"Lark Sparrow\"}","bird":["Lark Sparrow"],"family":["New World Sparrows and Allies"],"class":["899"],"trial_type":"image-multi-choice","trial_index":294,"time_elapsed":4727508,"internal_node_id":"0.0-1.0-293.0"},{"rt":3928,"responses":"{\"Q0\":\"Magnolia Warbler\"}","bird":["Magnolia Warbler"],"family":["Wood-Warblers"],"class":["758"],"trial_type":"image-multi-choice","trial_index":295,"time_elapsed":4732445,"internal_node_id":"0.0-1.0-294.0"},{"rt":5100,"responses":"{\"Q0\":\"Yellow Warbler\"}","bird":["Yellow Warbler"],"family":["Wood-Warblers"],"class":["875"],"trial_type":"image-multi-choice","trial_index":296,"time_elapsed":4738552,"internal_node_id":"0.0-1.0-295.0"},{"rt":4700,"responses":"{\"Q0\":\"White-crowned Sparrow\"}","bird":["White-crowned Sparrow"],"family":["New World Sparrows and Allies"],"class":["766"],"trial_type":"image-multi-choice","trial_index":297,"time_elapsed":4744260,"internal_node_id":"0.0-1.0-296.0"},{"rt":4676,"responses":"{\"Q0\":\"Swamp Sparrow\"}","bird":["Swamp Sparrow"],"family":["New World Sparrows and Allies"],"class":["904"],"trial_type":"image-multi-choice","trial_index":298,"time_elapsed":4749948,"internal_node_id":"0.0-1.0-297.0"},{"rt":7047,"responses":"{\"Q0\":\"Orange-crowned Warbler\"}","bird":["Orange-crowned Warbler"],"family":["Wood-Warblers"],"class":["867"],"trial_type":"image-multi-choice","trial_index":299,"time_elapsed":4758002,"internal_node_id":"0.0-1.0-298.0"},{"rt":3025,"responses":"{\"Q0\":\"Vesper Sparrow\"}","bird":["Vesper Sparrow"],"family":["New World Sparrows and Allies"],"class":["898"],"trial_type":"image-multi-choice","trial_index":300,"time_elapsed":4771210,"internal_node_id":"0.0-1.0-299.0"},{"view_history":"[{\"page_index\":0,\"viewing_time\":1708}]","rt":1708,"trial_type":"instructions","trial_index":301,"time_elapsed":4773922,"internal_node_id":"0.0-2.0"}]