"view_history","rt","trial_type","trial_index","time_elapsed","internal_node_id","responses","bird","family","class"
"[{""page_index"":0,""viewing_time"":15034}]","15036","instructions","0","15038","0.0-0.0","","","",""
"","10315","image-multi-choice","1","26390","0.0-1.0-0.0","{""Q0"":""Orange-crowned Warbler""}","Townsend's Warbler","Wood-Warblers","881"
"","10165","image-multi-choice","2","37580","0.0-1.0-1.0","{""Q0"":""Lincoln's Sparrow""}","Lark Sparrow","New World Sparrows and Allies","899"
"","5376","image-multi-choice","3","43987","0.0-1.0-2.0","{""Q0"":""White-crowned Sparrow""}","White-crowned Sparrow","New World Sparrows and Allies","766"
"","6012","image-multi-choice","4","51019","0.0-1.0-3.0","{""Q0"":""Lincoln's Sparrow""}","Lark Sparrow","New World Sparrows and Allies","899"
"","4449","image-multi-choice","5","56491","0.0-1.0-4.0","{""Q0"":""White-throated Sparrow""}","White-throated Sparrow","New World Sparrows and Allies","764"
"","5461","image-multi-choice","6","62979","0.0-1.0-5.0","{""Q0"":""Northern Waterthrush""}","White-crowned Sparrow","New World Sparrows and Allies","766"
"","8863","image-multi-choice","7","72863","0.0-1.0-6.0","{""Q0"":""Tennessee Warbler""}","Tennessee Warbler","Wood-Warblers","866"
"","3982","image-multi-choice","8","77875","0.0-1.0-7.0","{""Q0"":""White-crowned Sparrow""}","White-crowned Sparrow","New World Sparrows and Allies","766"
"","13432","image-multi-choice","9","92331","0.0-1.0-8.0","{""Q0"":""Tennessee Warbler""}","Orange-crowned Warbler","Wood-Warblers","867"
"","5796","image-multi-choice","10","99147","0.0-1.0-9.0","{""Q0"":""Swamp Sparrow""}","Swamp Sparrow","New World Sparrows and Allies","904"
"","4672","image-multi-choice","11","104842","0.0-1.0-10.0","{""Q0"":""Nashville Warbler""}","Orange-crowned Warbler","Wood-Warblers","867"
"","3761","image-multi-choice","12","109626","0.0-1.0-11.0","{""Q0"":""White-crowned Sparrow""}","White-crowned Sparrow","New World Sparrows and Allies","766"
"","5031","image-multi-choice","13","115674","0.0-1.0-12.0","{""Q0"":""Black-and-white Warbler""}","Townsend's Warbler","Wood-Warblers","881"
"","4000","image-multi-choice","14","120700","0.0-1.0-13.0","{""Q0"":""Fox Sparrow""}","Lincoln's Sparrow","New World Sparrows and Allies","903"
"","3640","image-multi-choice","15","125354","0.0-1.0-14.0","{""Q0"":""Ovenbird""}","Ovenbird","Wood-Warblers","860"
"","8881","image-multi-choice","16","135250","0.0-1.0-15.0","{""Q0"":""Orange-crowned Warbler""}","Tennessee Warbler","Wood-Warblers","866"
"","4829","image-multi-choice","17","141094","0.0-1.0-16.0","{""Q0"":""Fox Sparrow""}","Vesper Sparrow","New World Sparrows and Allies","898"
"","4334","image-multi-choice","18","146443","0.0-1.0-17.0","{""Q0"":""Townsend's Warbler""}","Tennessee Warbler","Wood-Warblers","866"
"","4656","image-multi-choice","19","152114","0.0-1.0-18.0","{""Q0"":""Lincoln's Sparrow""}","Vesper Sparrow","New World Sparrows and Allies","898"
"","6012","image-multi-choice","20","159138","0.0-1.0-19.0","{""Q0"":""Song Sparrow""}","Song Sparrow","New World Sparrows and Allies","902"
"","8602","image-multi-choice","21","168753","0.0-1.0-20.0","{""Q0"":""Magnolia Warbler""}","Magnolia Warbler","Wood-Warblers","758"
"","5012","image-multi-choice","22","174778","0.0-1.0-21.0","{""Q0"":""Orange-crowned Warbler""}","Orange-crowned Warbler","Wood-Warblers","867"
"","4539","image-multi-choice","23","180329","0.0-1.0-22.0","{""Q0"":""Townsend's Warbler""}","Townsend's Warbler","Wood-Warblers","881"
"","4003","image-multi-choice","24","185346","0.0-1.0-23.0","{""Q0"":""Northern Waterthrush""}","Ovenbird","Wood-Warblers","860"
"","5682","image-multi-choice","25","192041","0.0-1.0-24.0","{""Q0"":""Chipping Sparrow""}","Lincoln's Sparrow","New World Sparrows and Allies","903"
"","2723","image-multi-choice","26","195777","0.0-1.0-25.0","{""Q0"":""White-throated Sparrow""}","White-throated Sparrow","New World Sparrows and Allies","764"
"","3586","image-multi-choice","27","200377","0.0-1.0-26.0","{""Q0"":""Ovenbird""}","Ovenbird","Wood-Warblers","860"
"","6344","image-multi-choice","28","207737","0.0-1.0-27.0","{""Q0"":""Chipping Sparrow""}","Chipping Sparrow","New World Sparrows and Allies","769"
"","6331","image-multi-choice","29","215081","0.0-1.0-28.0","{""Q0"":""Northern Waterthrush""}","Fox Sparrow","New World Sparrows and Allies","901"
"","11684","image-multi-choice","30","227777","0.0-1.0-29.0","{""Q0"":""Tennessee Warbler""}","Magnolia Warbler","Wood-Warblers","758"
"","3664","image-multi-choice","31","232457","0.0-1.0-30.0","{""Q0"":""Northern Waterthrush""}","Northern Waterthrush","Wood-Warblers","862"
"","6026","image-multi-choice","32","239497","0.0-1.0-31.0","{""Q0"":""Orange-crowned Warbler""}","Tennessee Warbler","Wood-Warblers","866"
"","6252","image-multi-choice","33","246761","0.0-1.0-32.0","{""Q0"":""Nashville Warbler""}","Magnolia Warbler","Wood-Warblers","758"
"","6348","image-multi-choice","34","254121","0.0-1.0-33.0","{""Q0"":""Song Sparrow""}","Song Sparrow","New World Sparrows and Allies","902"
"","5092","image-multi-choice","35","260225","0.0-1.0-34.0","{""Q0"":""White-throated Sparrow""}","Lark Sparrow","New World Sparrows and Allies","899"
"","6500","image-multi-choice","36","267737","0.0-1.0-35.0","{""Q0"":""Nashville Warbler""}","Nashville Warbler","Wood-Warblers","868"
"","3892","image-multi-choice","37","272641","0.0-1.0-36.0","{""Q0"":""Northern Waterthrush""}","Northern Waterthrush","Wood-Warblers","862"
"","4211","image-multi-choice","38","277864","0.0-1.0-37.0","{""Q0"":""Fox Sparrow""}","Chipping Sparrow","New World Sparrows and Allies","769"
"","2541","image-multi-choice","39","281417","0.0-1.0-38.0","{""Q0"":""Yellow Warbler""}","Yellow Warbler","Wood-Warblers","875"
"","2995","image-multi-choice","40","285424","0.0-1.0-39.0","{""Q0"":""Ovenbird""}","Ovenbird","Wood-Warblers","860"
"","3300","image-multi-choice","41","289737","0.0-1.0-40.0","{""Q0"":""Black-and-white Warbler""}","Black-and-white Warbler","Wood-Warblers","864"
"","5460","image-multi-choice","42","296209","0.0-1.0-41.0","{""Q0"":""Tennessee Warbler""}","Tennessee Warbler","Wood-Warblers","866"
"","4315","image-multi-choice","43","301536","0.0-1.0-42.0","{""Q0"":""Lark Sparrow""}","Song Sparrow","New World Sparrows and Allies","902"
"","3979","image-multi-choice","44","306528","0.0-1.0-43.0","{""Q0"":""Blackburnian Warbler""}","Blackburnian Warbler","Wood-Warblers","874"
"","6051","image-multi-choice","45","313592","0.0-1.0-44.0","{""Q0"":""Black-and-white Warbler""}","Black-and-white Warbler","Wood-Warblers","864"
"","4172","image-multi-choice","46","318776","0.0-1.0-45.0","{""Q0"":""Magnolia Warbler""}","Magnolia Warbler","Wood-Warblers","758"
"","4539","image-multi-choice","47","324328","0.0-1.0-46.0","{""Q0"":""Ovenbird""}","Ovenbird","Wood-Warblers","860"
"","3851","image-multi-choice","48","329192","0.0-1.0-47.0","{""Q0"":""Lark Sparrow""}","Vesper Sparrow","New World Sparrows and Allies","898"
"","4132","image-multi-choice","49","334336","0.0-1.0-48.0","{""Q0"":""White-throated Sparrow""}","Lark Sparrow","New World Sparrows and Allies","899"
"","5371","image-multi-choice","50","340720","0.0-1.0-49.0","{""Q0"":""Tennessee Warbler""}","Black-and-white Warbler","Wood-Warblers","864"
"","4413","image-multi-choice","51","346145","0.0-1.0-50.0","{""Q0"":""Magnolia Warbler""}","Townsend's Warbler","Wood-Warblers","881"
"","2646","image-multi-choice","52","349808","0.0-1.0-51.0","{""Q0"":""Yellow Warbler""}","Nashville Warbler","Wood-Warblers","868"
"","5404","image-multi-choice","53","356225","0.0-1.0-52.0","{""Q0"":""White-crowned Sparrow""}","Chipping Sparrow","New World Sparrows and Allies","769"
"","4155","image-multi-choice","54","361392","0.0-1.0-53.0","{""Q0"":""Chipping Sparrow""}","Swamp Sparrow","New World Sparrows and Allies","904"
"","4491","image-multi-choice","55","366897","0.0-1.0-54.0","{""Q0"":""White-crowned Sparrow""}","White-crowned Sparrow","New World Sparrows and Allies","766"
"","5547","image-multi-choice","56","373456","0.0-1.0-55.0","{""Q0"":""Black-and-white Warbler""}","Black-and-white Warbler","Wood-Warblers","864"
"","4675","image-multi-choice","57","379144","0.0-1.0-56.0","{""Q0"":""Magnolia Warbler""}","Tennessee Warbler","Wood-Warblers","866"
"","4761","image-multi-choice","58","384944","0.0-1.0-57.0","{""Q0"":""Magnolia Warbler""}","Townsend's Warbler","Wood-Warblers","881"
"","3260","image-multi-choice","59","389216","0.0-1.0-58.0","{""Q0"":""Nashville Warbler""}","Nashville Warbler","Wood-Warblers","868"
"","4908","image-multi-choice","60","405020","0.0-1.0-59.0","{""Q0"":""Swamp Sparrow""}","Lincoln's Sparrow","New World Sparrows and Allies","903"
"","8582","image-multi-choice","61","414640","0.0-1.0-60.0","{""Q0"":""Lincoln's Sparrow""}","Song Sparrow","New World Sparrows and Allies","902"
"","2535","image-multi-choice","62","418192","0.0-1.0-61.0","{""Q0"":""Yellow Warbler""}","Yellow Warbler","Wood-Warblers","875"
"","2821","image-multi-choice","63","422032","0.0-1.0-62.0","{""Q0"":""White-throated Sparrow""}","White-throated Sparrow","New World Sparrows and Allies","764"
"","4042","image-multi-choice","64","427087","0.0-1.0-63.0","{""Q0"":""Nashville Warbler""}","Tennessee Warbler","Wood-Warblers","866"
"","4814","image-multi-choice","65","432919","0.0-1.0-64.0","{""Q0"":""Chipping Sparrow""}","Lincoln's Sparrow","New World Sparrows and Allies","903"
"","3585","image-multi-choice","66","437519","0.0-1.0-65.0","{""Q0"":""Magnolia Warbler""}","Blackburnian Warbler","Wood-Warblers","874"
"","5236","image-multi-choice","67","443767","0.0-1.0-66.0","{""Q0"":""Northern Waterthrush""}","Northern Waterthrush","Wood-Warblers","862"
"","2068","image-multi-choice","68","446847","0.0-1.0-67.0","{""Q0"":""Yellow Warbler""}","Yellow Warbler","Wood-Warblers","875"
"","3140","image-multi-choice","69","451000","0.0-1.0-68.0","{""Q0"":""Fox Sparrow""}","Lincoln's Sparrow","New World Sparrows and Allies","903"
"","4427","image-multi-choice","70","456439","0.0-1.0-69.0","{""Q0"":""Chipping Sparrow""}","American Tree Sparrow","New World Sparrows and Allies","894"
"","3156","image-multi-choice","71","460607","0.0-1.0-70.0","{""Q0"":""Nashville Warbler""}","Orange-crowned Warbler","Wood-Warblers","867"
"","5996","image-multi-choice","72","467615","0.0-1.0-71.0","{""Q0"":""Lark Sparrow""}","Lincoln's Sparrow","New World Sparrows and Allies","903"
"","4378","image-multi-choice","73","473008","0.0-1.0-72.0","{""Q0"":""Townsend's Warbler""}","Magnolia Warbler","Wood-Warblers","758"
"","6964","image-multi-choice","74","480984","0.0-1.0-73.0","{""Q0"":""Vesper Sparrow""}","Lincoln's Sparrow","New World Sparrows and Allies","903"
"","2164","image-multi-choice","75","484159","0.0-1.0-74.0","{""Q0"":""Yellow Warbler""}","Yellow Warbler","Wood-Warblers","875"
"","3277","image-multi-choice","76","488447","0.0-1.0-75.0","{""Q0"":""White-crowned Sparrow""}","White-crowned Sparrow","New World Sparrows and Allies","766"
"","3684","image-multi-choice","77","493143","0.0-1.0-76.0","{""Q0"":""Nashville Warbler""}","Nashville Warbler","Wood-Warblers","868"
"","6924","image-multi-choice","78","501079","0.0-1.0-77.0","{""Q0"":""American Tree Sparrow""}","American Tree Sparrow","New World Sparrows and Allies","894"
"","3565","image-multi-choice","79","505655","0.0-1.0-78.0","{""Q0"":""Magnolia Warbler""}","Townsend's Warbler","Wood-Warblers","881"
"","4309","image-multi-choice","80","510975","0.0-1.0-79.0","{""Q0"":""Chipping Sparrow""}","Chipping Sparrow","New World Sparrows and Allies","769"
"","2780","image-multi-choice","81","514766","0.0-1.0-80.0","{""Q0"":""White-throated Sparrow""}","White-throated Sparrow","New World Sparrows and Allies","764"
"","2893","image-multi-choice","82","518671","0.0-1.0-81.0","{""Q0"":""Ovenbird""}","Ovenbird","Wood-Warblers","860"
"","2581","image-multi-choice","83","522263","0.0-1.0-82.0","{""Q0"":""White-crowned Sparrow""}","White-crowned Sparrow","New World Sparrows and Allies","766"
"","3205","image-multi-choice","84","526479","0.0-1.0-83.0","{""Q0"":""Magnolia Warbler""}","Magnolia Warbler","Wood-Warblers","758"
"","2388","image-multi-choice","85","529879","0.0-1.0-84.0","{""Q0"":""Yellow Warbler""}","Yellow Warbler","Wood-Warblers","875"
"","3972","image-multi-choice","86","534863","0.0-1.0-85.0","{""Q0"":""Lark Sparrow""}","Lark Sparrow","New World Sparrows and Allies","899"
"","4093","image-multi-choice","87","539966","0.0-1.0-86.0","{""Q0"":""Chipping Sparrow""}","Lincoln's Sparrow","New World Sparrows and Allies","903"
"","7301","image-multi-choice","88","548279","0.0-1.0-87.0","{""Q0"":""Townsend's Warbler""}","Black-and-white Warbler","Wood-Warblers","864"
"","2579","image-multi-choice","89","551870","0.0-1.0-88.0","{""Q0"":""White-crowned Sparrow""}","White-crowned Sparrow","New World Sparrows and Allies","766"
"","3667","image-multi-choice","90","556550","0.0-1.0-89.0","{""Q0"":""Magnolia Warbler""}","Townsend's Warbler","Wood-Warblers","881"
"","2709","image-multi-choice","91","560270","0.0-1.0-90.0","{""Q0"":""White-throated Sparrow""}","White-throated Sparrow","New World Sparrows and Allies","764"
"","3613","image-multi-choice","92","564894","0.0-1.0-91.0","{""Q0"":""Magnolia Warbler""}","Magnolia Warbler","Wood-Warblers","758"
"","3197","image-multi-choice","93","569103","0.0-1.0-92.0","{""Q0"":""Lincoln's Sparrow""}","Lincoln's Sparrow","New World Sparrows and Allies","903"
"","7212","image-multi-choice","94","577326","0.0-1.0-93.0","{""Q0"":""Orange-crowned Warbler""}","Blackburnian Warbler","Wood-Warblers","874"
"","5757","image-multi-choice","95","584094","0.0-1.0-94.0","{""Q0"":""Lark Sparrow""}","Vesper Sparrow","New World Sparrows and Allies","898"
"","6629","image-multi-choice","96","591734","0.0-1.0-95.0","{""Q0"":""Lark Sparrow""}","Lark Sparrow","New World Sparrows and Allies","899"
"","3804","image-multi-choice","97","596550","0.0-1.0-96.0","{""Q0"":""Chipping Sparrow""}","Swamp Sparrow","New World Sparrows and Allies","904"
"","3332","image-multi-choice","98","600894","0.0-1.0-97.0","{""Q0"":""Ovenbird""}","Northern Waterthrush","Wood-Warblers","862"
"","4691","image-multi-choice","99","606598","0.0-1.0-98.0","{""Q0"":""Ovenbird""}","Ovenbird","Wood-Warblers","860"
"","3740","image-multi-choice","100","611350","0.0-1.0-99.0","{""Q0"":""White-crowned Sparrow""}","White-throated Sparrow","New World Sparrows and Allies","764"
"","3956","image-multi-choice","101","616318","0.0-1.0-100.0","{""Q0"":""Nashville Warbler""}","Nashville Warbler","Wood-Warblers","868"
"","3884","image-multi-choice","102","621214","0.0-1.0-101.0","{""Q0"":""Magnolia Warbler""}","Magnolia Warbler","Wood-Warblers","758"
"","4043","image-multi-choice","103","626270","0.0-1.0-102.0","{""Q0"":""Fox Sparrow""}","Swamp Sparrow","New World Sparrows and Allies","904"
"","3932","image-multi-choice","104","631214","0.0-1.0-103.0","{""Q0"":""Blackburnian Warbler""}","Blackburnian Warbler","Wood-Warblers","874"
"","4211","image-multi-choice","105","636439","0.0-1.0-104.0","{""Q0"":""Ovenbird""}","Northern Waterthrush","Wood-Warblers","862"
"","3569","image-multi-choice","106","641023","0.0-1.0-105.0","{""Q0"":""Chipping Sparrow""}","Swamp Sparrow","New World Sparrows and Allies","904"
"","3999","image-multi-choice","107","646037","0.0-1.0-106.0","{""Q0"":""Song Sparrow""}","Song Sparrow","New World Sparrows and Allies","902"
"","4297","image-multi-choice","108","651349","0.0-1.0-107.0","{""Q0"":""Blackburnian Warbler""}","Black-and-white Warbler","Wood-Warblers","864"
"","3275","image-multi-choice","109","655637","0.0-1.0-108.0","{""Q0"":""Magnolia Warbler""}","Blackburnian Warbler","Wood-Warblers","874"
"","5266","image-multi-choice","110","661926","0.0-1.0-109.0","{""Q0"":""Orange-crowned Warbler""}","Nashville Warbler","Wood-Warblers","868"
"","3420","image-multi-choice","111","666389","0.0-1.0-110.0","{""Q0"":""Lincoln's Sparrow""}","Chipping Sparrow","New World Sparrows and Allies","769"
"","4037","image-multi-choice","112","671437","0.0-1.0-111.0","{""Q0"":""Chipping Sparrow""}","American Tree Sparrow","New World Sparrows and Allies","894"
"","3276","image-multi-choice","113","675725","0.0-1.0-112.0","{""Q0"":""Ovenbird""}","Northern Waterthrush","Wood-Warblers","862"
"","1858","image-multi-choice","114","678597","0.0-1.0-113.0","{""Q0"":""Yellow Warbler""}","Yellow Warbler","Wood-Warblers","875"
"","3412","image-multi-choice","115","683021","0.0-1.0-114.0","{""Q0"":""Nashville Warbler""}","Tennessee Warbler","Wood-Warblers","866"
"","5412","image-multi-choice","116","689445","0.0-1.0-115.0","{""Q0"":""Song Sparrow""}","Lincoln's Sparrow","New World Sparrows and Allies","903"
"","5427","image-multi-choice","117","695885","0.0-1.0-116.0","{""Q0"":""Magnolia Warbler""}","Black-and-white Warbler","Wood-Warblers","864"
"","5971","image-multi-choice","118","702869","0.0-1.0-117.0","{""Q0"":""Song Sparrow""}","Song Sparrow","New World Sparrows and Allies","902"
"","2379","image-multi-choice","119","706261","0.0-1.0-118.0","{""Q0"":""Vesper Sparrow""}","Lincoln's Sparrow","New World Sparrows and Allies","903"
"","3421","image-multi-choice","120","718329","0.0-1.0-119.0","{""Q0"":""Magnolia Warbler""}","Blackburnian Warbler","Wood-Warblers","874"
"","3312","image-multi-choice","121","722652","0.0-1.0-120.0","{""Q0"":""Nashville Warbler""}","Nashville Warbler","Wood-Warblers","868"
"","3901","image-multi-choice","122","727564","0.0-1.0-121.0","{""Q0"":""Vesper Sparrow""}","Vesper Sparrow","New World Sparrows and Allies","898"
"","3397","image-multi-choice","123","731973","0.0-1.0-122.0","{""Q0"":""Magnolia Warbler""}","Townsend's Warbler","Wood-Warblers","881"
"","3381","image-multi-choice","124","736365","0.0-1.0-123.0","{""Q0"":""Vesper Sparrow""}","Song Sparrow","New World Sparrows and Allies","902"
"","2428","image-multi-choice","125","739804","0.0-1.0-124.0","{""Q0"":""White-crowned Sparrow""}","White-throated Sparrow","New World Sparrows and Allies","764"
"","4339","image-multi-choice","126","745156","0.0-1.0-125.0","{""Q0"":""Orange-crowned Warbler""}","Nashville Warbler","Wood-Warblers","868"
"","9373","image-multi-choice","127","755540","0.0-1.0-126.0","{""Q0"":""Swamp Sparrow""}","Fox Sparrow","New World Sparrows and Allies","901"
"","3100","image-multi-choice","128","759652","0.0-1.0-127.0","{""Q0"":""Magnolia Warbler""}","Magnolia Warbler","Wood-Warblers","758"
"","3972","image-multi-choice","129","764636","0.0-1.0-128.0","{""Q0"":""Nashville Warbler""}","Nashville Warbler","Wood-Warblers","868"
"","7363","image-multi-choice","130","773012","0.0-1.0-129.0","{""Q0"":""Lark Sparrow""}","Swamp Sparrow","New World Sparrows and Allies","904"
"","2811","image-multi-choice","131","776836","0.0-1.0-130.0","{""Q0"":""White-throated Sparrow""}","White-throated Sparrow","New World Sparrows and Allies","764"
"","4580","image-multi-choice","132","782428","0.0-1.0-131.0","{""Q0"":""Chipping Sparrow""}","Song Sparrow","New World Sparrows and Allies","902"
"","2284","image-multi-choice","133","785724","0.0-1.0-132.0","{""Q0"":""Yellow Warbler""}","Yellow Warbler","Wood-Warblers","875"
"","5373","image-multi-choice","134","792108","0.0-1.0-133.0","{""Q0"":""Magnolia Warbler""}","Townsend's Warbler","Wood-Warblers","881"
"","3996","image-multi-choice","135","797140","0.0-1.0-134.0","{""Q0"":""Vesper Sparrow""}","Fox Sparrow","New World Sparrows and Allies","901"
"","3173","image-multi-choice","136","801325","0.0-1.0-135.0","{""Q0"":""White-crowned Sparrow""}","White-crowned Sparrow","New World Sparrows and Allies","766"
"","3459","image-multi-choice","137","805796","0.0-1.0-136.0","{""Q0"":""Magnolia Warbler""}","Magnolia Warbler","Wood-Warblers","758"
"","4243","image-multi-choice","138","811052","0.0-1.0-137.0","{""Q0"":""Magnolia Warbler""}","Blackburnian Warbler","Wood-Warblers","874"
"","4100","image-multi-choice","139","816164","0.0-1.0-138.0","{""Q0"":""Magnolia Warbler""}","Magnolia Warbler","Wood-Warblers","758"
"","3244","image-multi-choice","140","820420","0.0-1.0-139.0","{""Q0"":""Chipping Sparrow""}","Chipping Sparrow","New World Sparrows and Allies","769"
"","4171","image-multi-choice","141","825604","0.0-1.0-140.0","{""Q0"":""Vesper Sparrow""}","American Tree Sparrow","New World Sparrows and Allies","894"
"","1756","image-multi-choice","142","828372","0.0-1.0-141.0","{""Q0"":""Yellow Warbler""}","Orange-crowned Warbler","Wood-Warblers","867"
"","2923","image-multi-choice","143","832308","0.0-1.0-142.0","{""Q0"":""Vesper Sparrow""}","Fox Sparrow","New World Sparrows and Allies","901"
"","2077","image-multi-choice","144","835396","0.0-1.0-143.0","{""Q0"":""Yellow Warbler""}","Yellow Warbler","Wood-Warblers","875"
"","3597","image-multi-choice","145","840004","0.0-1.0-144.0","{""Q0"":""American Tree Sparrow""}","American Tree Sparrow","New World Sparrows and Allies","894"
"","3908","image-multi-choice","146","844924","0.0-1.0-145.0","{""Q0"":""Swamp Sparrow""}","Swamp Sparrow","New World Sparrows and Allies","904"
"","3044","image-multi-choice","147","848980","0.0-1.0-146.0","{""Q0"":""White-throated Sparrow""}","Lark Sparrow","New World Sparrows and Allies","899"
"","4452","image-multi-choice","148","854444","0.0-1.0-147.0","{""Q0"":""Fox Sparrow""}","Vesper Sparrow","New World Sparrows and Allies","898"
"","2804","image-multi-choice","149","858260","0.0-1.0-148.0","{""Q0"":""Ovenbird""}","Fox Sparrow","New World Sparrows and Allies","901"
"","3747","image-multi-choice","150","863024","0.0-1.0-149.0","{""Q0"":""White-throated Sparrow""}","Song Sparrow","New World Sparrows and Allies","902"
"","7155","image-multi-choice","151","871195","0.0-1.0-150.0","{""Q0"":""Black-and-white Warbler""}","Blackburnian Warbler","Wood-Warblers","874"
"","1884","image-multi-choice","152","874091","0.0-1.0-151.0","{""Q0"":""Yellow Warbler""}","Orange-crowned Warbler","Wood-Warblers","867"
"","7580","image-multi-choice","153","882683","0.0-1.0-152.0","{""Q0"":""Vesper Sparrow""}","Fox Sparrow","New World Sparrows and Allies","901"
"","2084","image-multi-choice","154","885779","0.0-1.0-153.0","{""Q0"":""Yellow Warbler""}","Orange-crowned Warbler","Wood-Warblers","867"
"","4365","image-multi-choice","155","891155","0.0-1.0-154.0","{""Q0"":""Magnolia Warbler""}","Townsend's Warbler","Wood-Warblers","881"
"","2525","image-multi-choice","156","894691","0.0-1.0-155.0","{""Q0"":""Ovenbird""}","Ovenbird","Wood-Warblers","860"
"","3165","image-multi-choice","157","898867","0.0-1.0-156.0","{""Q0"":""Nashville Warbler""}","Nashville Warbler","Wood-Warblers","868"
"","4684","image-multi-choice","158","904563","0.0-1.0-157.0","{""Q0"":""Lincoln's Sparrow""}","Song Sparrow","New World Sparrows and Allies","902"
"","1708","image-multi-choice","159","907283","0.0-1.0-158.0","{""Q0"":""Yellow Warbler""}","Yellow Warbler","Wood-Warblers","875"
"","3892","image-multi-choice","160","912187","0.0-1.0-159.0","{""Q0"":""Swamp Sparrow""}","Fox Sparrow","New World Sparrows and Allies","901"
"","2732","image-multi-choice","161","915931","0.0-1.0-160.0","{""Q0"":""Black-and-white Warbler""}","Black-and-white Warbler","Wood-Warblers","864"
"","3493","image-multi-choice","162","920435","0.0-1.0-161.0","{""Q0"":""Nashville Warbler""}","Orange-crowned Warbler","Wood-Warblers","867"
"","3869","image-multi-choice","163","925316","0.0-1.0-162.0","{""Q0"":""Chipping Sparrow""}","American Tree Sparrow","New World Sparrows and Allies","894"
"","3028","image-multi-choice","164","929355","0.0-1.0-163.0","{""Q0"":""Magnolia Warbler""}","Townsend's Warbler","Wood-Warblers","881"
"","3083","image-multi-choice","165","933452","0.0-1.0-164.0","{""Q0"":""Song Sparrow""}","Song Sparrow","New World Sparrows and Allies","902"
"","2891","image-multi-choice","166","937355","0.0-1.0-165.0","{""Q0"":""Orange-crowned Warbler""}","Nashville Warbler","Wood-Warblers","868"
"","3547","image-multi-choice","167","941915","0.0-1.0-166.0","{""Q0"":""Nashville Warbler""}","Tennessee Warbler","Wood-Warblers","866"
"","3476","image-multi-choice","168","946403","0.0-1.0-167.0","{""Q0"":""Vesper Sparrow""}","Chipping Sparrow","New World Sparrows and Allies","769"
"","4499","image-multi-choice","169","951915","0.0-1.0-168.0","{""Q0"":""Ovenbird""}","Ovenbird","Wood-Warblers","860"
"","2445","image-multi-choice","170","955371","0.0-1.0-169.0","{""Q0"":""White-throated Sparrow""}","White-throated Sparrow","New World Sparrows and Allies","764"
"","4933","image-multi-choice","171","961315","0.0-1.0-170.0","{""Q0"":""Fox Sparrow""}","Fox Sparrow","New World Sparrows and Allies","901"
"","4652","image-multi-choice","172","966979","0.0-1.0-171.0","{""Q0"":""Magnolia Warbler""}","Blackburnian Warbler","Wood-Warblers","874"
"","3972","image-multi-choice","173","971963","0.0-1.0-172.0","{""Q0"":""American Tree Sparrow""}","American Tree Sparrow","New World Sparrows and Allies","894"
"","4301","image-multi-choice","174","977275","0.0-1.0-173.0","{""Q0"":""Fox Sparrow""}","Swamp Sparrow","New World Sparrows and Allies","904"
"","2876","image-multi-choice","175","981163","0.0-1.0-174.0","{""Q0"":""Magnolia Warbler""}","Townsend's Warbler","Wood-Warblers","881"
"","2612","image-multi-choice","176","984787","0.0-1.0-175.0","{""Q0"":""Orange-crowned Warbler""}","Tennessee Warbler","Wood-Warblers","866"
"","4388","image-multi-choice","177","990187","0.0-1.0-176.0","{""Q0"":""Northern Waterthrush""}","Northern Waterthrush","Wood-Warblers","862"
"","5014","image-multi-choice","178","996212","0.0-1.0-177.0","{""Q0"":""Chipping Sparrow""}","Swamp Sparrow","New World Sparrows and Allies","904"
"","2763","image-multi-choice","179","999987","0.0-1.0-178.0","{""Q0"":""Vesper Sparrow""}","Fox Sparrow","New World Sparrows and Allies","901"
"","4165","image-multi-choice","180","1010599","0.0-1.0-179.0","{""Q0"":""American Tree Sparrow""}","American Tree Sparrow","New World Sparrows and Allies","894"
"","3663","image-multi-choice","181","1015274","0.0-1.0-180.0","{""Q0"":""Vesper Sparrow""}","Fox Sparrow","New World Sparrows and Allies","901"
"","4148","image-multi-choice","182","1020434","0.0-1.0-181.0","{""Q0"":""Fox Sparrow""}","Vesper Sparrow","New World Sparrows and Allies","898"
"","3445","image-multi-choice","183","1024891","0.0-1.0-182.0","{""Q0"":""White-throated Sparrow""}","Song Sparrow","New World Sparrows and Allies","902"
"","4477","image-multi-choice","184","1030378","0.0-1.0-183.0","{""Q0"":""Magnolia Warbler""}","Blackburnian Warbler","Wood-Warblers","874"
"","4417","image-multi-choice","185","1035834","0.0-1.0-184.0","{""Q0"":""White-crowned Sparrow""}","White-crowned Sparrow","New World Sparrows and Allies","766"
"","3916","image-multi-choice","186","1040762","0.0-1.0-185.0","{""Q0"":""American Tree Sparrow""}","American Tree Sparrow","New World Sparrows and Allies","894"
"","3093","image-multi-choice","187","1044866","0.0-1.0-186.0","{""Q0"":""Black-and-white Warbler""}","Black-and-white Warbler","Wood-Warblers","864"
"","4756","image-multi-choice","188","1050634","0.0-1.0-187.0","{""Q0"":""Lark Sparrow""}","Lark Sparrow","New World Sparrows and Allies","899"
"","3276","image-multi-choice","189","1054922","0.0-1.0-188.0","{""Q0"":""Orange-crowned Warbler""}","Nashville Warbler","Wood-Warblers","868"
"","5404","image-multi-choice","190","1061338","0.0-1.0-189.0","{""Q0"":""Northern Waterthrush""}","Northern Waterthrush","Wood-Warblers","862"
"","2732","image-multi-choice","191","1065082","0.0-1.0-190.0","{""Q0"":""Orange-crowned Warbler""}","Tennessee Warbler","Wood-Warblers","866"
"","5147","image-multi-choice","192","1071242","0.0-1.0-191.0","{""Q0"":""Nashville Warbler""}","Nashville Warbler","Wood-Warblers","868"
"","2675","image-multi-choice","193","1074930","0.0-1.0-192.0","{""Q0"":""Vesper Sparrow""}","Fox Sparrow","New World Sparrows and Allies","901"
"","4724","image-multi-choice","194","1080666","0.0-1.0-193.0","{""Q0"":""Lincoln's Sparrow""}","Blackburnian Warbler","Wood-Warblers","874"
"","4421","image-multi-choice","195","1086098","0.0-1.0-194.0","{""Q0"":""Chipping Sparrow""}","Swamp Sparrow","New World Sparrows and Allies","904"
"","3852","image-multi-choice","196","1090962","0.0-1.0-195.0","{""Q0"":""Magnolia Warbler""}","Townsend's Warbler","Wood-Warblers","881"
"","3612","image-multi-choice","197","1095586","0.0-1.0-196.0","{""Q0"":""Orange-crowned Warbler""}","Tennessee Warbler","Wood-Warblers","866"
"","2539","image-multi-choice","198","1099138","0.0-1.0-197.0","{""Q0"":""White-crowned Sparrow""}","White-crowned Sparrow","New World Sparrows and Allies","766"
"","3468","image-multi-choice","199","1103618","0.0-1.0-198.0","{""Q0"":""Ovenbird""}","Ovenbird","Wood-Warblers","860"
"","3460","image-multi-choice","200","1108090","0.0-1.0-199.0","{""Q0"":""Lark Sparrow""}","Vesper Sparrow","New World Sparrows and Allies","898"
"","3108","image-multi-choice","201","1112210","0.0-1.0-200.0","{""Q0"":""Blackburnian Warbler""}","Blackburnian Warbler","Wood-Warblers","874"
"","7124","image-multi-choice","202","1120346","0.0-1.0-201.0","{""Q0"":""Swamp Sparrow""}","Chipping Sparrow","New World Sparrows and Allies","769"
"","3506","image-multi-choice","203","1124900","0.0-1.0-202.0","{""Q0"":""Lincoln's Sparrow""}","Vesper Sparrow","New World Sparrows and Allies","898"
"","2168","image-multi-choice","204","1128082","0.0-1.0-203.0","{""Q0"":""Yellow Warbler""}","Yellow Warbler","Wood-Warblers","875"
"","3157","image-multi-choice","205","1132250","0.0-1.0-204.0","{""Q0"":""Orange-crowned Warbler""}","Orange-crowned Warbler","Wood-Warblers","867"
"","2212","image-multi-choice","206","1135474","0.0-1.0-205.0","{""Q0"":""White-throated Sparrow""}","White-throated Sparrow","New World Sparrows and Allies","764"
"","4451","image-multi-choice","207","1140938","0.0-1.0-206.0","{""Q0"":""Chipping Sparrow""}","American Tree Sparrow","New World Sparrows and Allies","894"
"","2124","image-multi-choice","208","1144074","0.0-1.0-207.0","{""Q0"":""Yellow Warbler""}","Orange-crowned Warbler","Wood-Warblers","867"
"","3253","image-multi-choice","209","1148338","0.0-1.0-208.0","{""Q0"":""Black-and-white Warbler""}","Black-and-white Warbler","Wood-Warblers","864"
"","3925","image-multi-choice","210","1153274","0.0-1.0-209.0","{""Q0"":""Lincoln's Sparrow""}","Lark Sparrow","New World Sparrows and Allies","899"
"","3741","image-multi-choice","211","1158026","0.0-1.0-210.0","{""Q0"":""Chipping Sparrow""}","Chipping Sparrow","New World Sparrows and Allies","769"
"","5388","image-multi-choice","212","1164426","0.0-1.0-211.0","{""Q0"":""Nashville Warbler""}","Orange-crowned Warbler","Wood-Warblers","867"
"","1812","image-multi-choice","213","1167250","0.0-1.0-212.0","{""Q0"":""Yellow Warbler""}","Yellow Warbler","Wood-Warblers","875"
"","3252","image-multi-choice","214","1171514","0.0-1.0-213.0","{""Q0"":""American Tree Sparrow""}","American Tree Sparrow","New World Sparrows and Allies","894"
"","4181","image-multi-choice","215","1176705","0.0-1.0-214.0","{""Q0"":""Swamp Sparrow""}","Vesper Sparrow","New World Sparrows and Allies","898"
"","4036","image-multi-choice","216","1181753","0.0-1.0-215.0","{""Q0"":""Ovenbird""}","Ovenbird","Wood-Warblers","860"
"","6004","image-multi-choice","217","1188769","0.0-1.0-216.0","{""Q0"":""Black-and-white Warbler""}","Lark Sparrow","New World Sparrows and Allies","899"
"","4181","image-multi-choice","218","1193961","0.0-1.0-217.0","{""Q0"":""Lark Sparrow""}","Lincoln's Sparrow","New World Sparrows and Allies","903"
"","4124","image-multi-choice","219","1199097","0.0-1.0-218.0","{""Q0"":""Lincoln's Sparrow""}","Chipping Sparrow","New World Sparrows and Allies","769"
"","3925","image-multi-choice","220","1204034","0.0-1.0-219.0","{""Q0"":""Lincoln's Sparrow""}","Lincoln's Sparrow","New World Sparrows and Allies","903"
"","5932","image-multi-choice","221","1210977","0.0-1.0-220.0","{""Q0"":""Northern Waterthrush""}","Northern Waterthrush","Wood-Warblers","862"
"","3619","image-multi-choice","222","1215609","0.0-1.0-221.0","{""Q0"":""Chipping Sparrow""}","Chipping Sparrow","New World Sparrows and Allies","769"
"","5580","image-multi-choice","223","1222201","0.0-1.0-222.0","{""Q0"":""Swamp Sparrow""}","Lincoln's Sparrow","New World Sparrows and Allies","903"
"","4803","image-multi-choice","224","1228017","0.0-1.0-223.0","{""Q0"":""Blackburnian Warbler""}","Blackburnian Warbler","Wood-Warblers","874"
"","7804","image-multi-choice","225","1236833","0.0-1.0-224.0","{""Q0"":""Fox Sparrow""}","Swamp Sparrow","New World Sparrows and Allies","904"
"","3164","image-multi-choice","226","1241009","0.0-1.0-225.0","{""Q0"":""American Tree Sparrow""}","American Tree Sparrow","New World Sparrows and Allies","894"
"","3284","image-multi-choice","227","1245305","0.0-1.0-226.0","{""Q0"":""Vesper Sparrow""}","Fox Sparrow","New World Sparrows and Allies","901"
"","4315","image-multi-choice","228","1250633","0.0-1.0-227.0","{""Q0"":""Northern Waterthrush""}","Northern Waterthrush","Wood-Warblers","862"
"","4596","image-multi-choice","229","1256241","0.0-1.0-228.0","{""Q0"":""Nashville Warbler""}","Nashville Warbler","Wood-Warblers","868"
"","3988","image-multi-choice","230","1261241","0.0-1.0-229.0","{""Q0"":""Blackburnian Warbler""}","Black-and-white Warbler","Wood-Warblers","864"
"","4619","image-multi-choice","231","1266873","0.0-1.0-230.0","{""Q0"":""Nashville Warbler""}","Tennessee Warbler","Wood-Warblers","866"
"","3525","image-multi-choice","232","1271409","0.0-1.0-231.0","{""Q0"":""Magnolia Warbler""}","Townsend's Warbler","Wood-Warblers","881"
"","2636","image-multi-choice","233","1275057","0.0-1.0-232.0","{""Q0"":""Magnolia Warbler""}","Magnolia Warbler","Wood-Warblers","758"
"","5836","image-multi-choice","234","1281905","0.0-1.0-233.0","{""Q0"":""Northern Waterthrush""}","Northern Waterthrush","Wood-Warblers","862"
"","3926","image-multi-choice","235","1286842","0.0-1.0-234.0","{""Q0"":""Nashville Warbler""}","Orange-crowned Warbler","Wood-Warblers","867"
"","2500","image-multi-choice","236","1290353","0.0-1.0-235.0","{""Q0"":""White-throated Sparrow""}","White-throated Sparrow","New World Sparrows and Allies","764"
"","1908","image-multi-choice","237","1293273","0.0-1.0-236.0","{""Q0"":""Yellow Warbler""}","Yellow Warbler","Wood-Warblers","875"
"","2365","image-multi-choice","238","1296649","0.0-1.0-237.0","{""Q0"":""Vesper Sparrow""}","Fox Sparrow","New World Sparrows and Allies","901"
"","3709","image-multi-choice","239","1301368","0.0-1.0-238.0","{""Q0"":""Chipping Sparrow""}","Swamp Sparrow","New World Sparrows and Allies","904"
"","2141","image-multi-choice","240","1310957","0.0-1.0-239.0","{""Q0"":""Vesper Sparrow""}","Fox Sparrow","New World Sparrows and Allies","901"
"","3303","image-multi-choice","241","1315273","0.0-1.0-240.0","{""Q0"":""Nashville Warbler""}","Orange-crowned Warbler","Wood-Warblers","867"
"","2148","image-multi-choice","242","1318432","0.0-1.0-241.0","{""Q0"":""White-crowned Sparrow""}","White-crowned Sparrow","New World Sparrows and Allies","766"
"","5124","image-multi-choice","243","1324568","0.0-1.0-242.0","{""Q0"":""White-throated Sparrow""}","White-throated Sparrow","New World Sparrows and Allies","764"
"","2260","image-multi-choice","244","1327840","0.0-1.0-243.0","{""Q0"":""Vesper Sparrow""}","Song Sparrow","New World Sparrows and Allies","902"
"","3532","image-multi-choice","245","1332384","0.0-1.0-244.0","{""Q0"":""Lincoln's Sparrow""}","Lark Sparrow","New World Sparrows and Allies","899"
"","2940","image-multi-choice","246","1336337","0.0-1.0-245.0","{""Q0"":""Lark Sparrow""}","Vesper Sparrow","New World Sparrows and Allies","898"
"","2997","image-multi-choice","247","1340344","0.0-1.0-246.0","{""Q0"":""Lincoln's Sparrow""}","Lark Sparrow","New World Sparrows and Allies","899"
"","2925","image-multi-choice","248","1344280","0.0-1.0-247.0","{""Q0"":""American Tree Sparrow""}","American Tree Sparrow","New World Sparrows and Allies","894"
"","4045","image-multi-choice","249","1349336","0.0-1.0-248.0","{""Q0"":""Black-and-white Warbler""}","Black-and-white Warbler","Wood-Warblers","864"
"","5101","image-multi-choice","250","1355448","0.0-1.0-249.0","{""Q0"":""Lincoln's Sparrow""}","Lark Sparrow","New World Sparrows and Allies","899"
"","3109","image-multi-choice","251","1359569","0.0-1.0-250.0","{""Q0"":""Nashville Warbler""}","Orange-crowned Warbler","Wood-Warblers","867"
"","4227","image-multi-choice","252","1364808","0.0-1.0-251.0","{""Q0"":""Blackburnian Warbler""}","Blackburnian Warbler","Wood-Warblers","874"
"","4891","image-multi-choice","253","1370712","0.0-1.0-252.0","{""Q0"":""Swamp Sparrow""}","Vesper Sparrow","New World Sparrows and Allies","898"
"","3268","image-multi-choice","254","1374992","0.0-1.0-253.0","{""Q0"":""Magnolia Warbler""}","Townsend's Warbler","Wood-Warblers","881"
"","3412","image-multi-choice","255","1379416","0.0-1.0-254.0","{""Q0"":""Lark Sparrow""}","Swamp Sparrow","New World Sparrows and Allies","904"
"","4004","image-multi-choice","256","1384432","0.0-1.0-255.0","{""Q0"":""Song Sparrow""}","Song Sparrow","New World Sparrows and Allies","902"
"","5108","image-multi-choice","257","1390553","0.0-1.0-256.0","{""Q0"":""Chipping Sparrow""}","Swamp Sparrow","New World Sparrows and Allies","904"
"","6148","image-multi-choice","258","1397712","0.0-1.0-257.0","{""Q0"":""Northern Waterthrush""}","Ovenbird","Wood-Warblers","860"
"","8556","image-multi-choice","259","1407280","0.0-1.0-258.0","{""Q0"":""Blackburnian Warbler""}","Black-and-white Warbler","Wood-Warblers","864"
"","5117","image-multi-choice","260","1413408","0.0-1.0-259.0","{""Q0"":""American Tree Sparrow""}","American Tree Sparrow","New World Sparrows and Allies","894"
"","1708","image-multi-choice","261","1416128","0.0-1.0-260.0","{""Q0"":""Yellow Warbler""}","Yellow Warbler","Wood-Warblers","875"
"","5780","image-multi-choice","262","1422920","0.0-1.0-261.0","{""Q0"":""Swamp Sparrow""}","Vesper Sparrow","New World Sparrows and Allies","898"
"","4493","image-multi-choice","263","1428424","0.0-1.0-262.0","{""Q0"":""Fox Sparrow""}","Chipping Sparrow","New World Sparrows and Allies","769"
"","5221","image-multi-choice","264","1434656","0.0-1.0-263.0","{""Q0"":""Northern Waterthrush""}","Northern Waterthrush","Wood-Warblers","862"
"","3437","image-multi-choice","265","1439104","0.0-1.0-264.0","{""Q0"":""Fox Sparrow""}","Song Sparrow","New World Sparrows and Allies","902"
"","3588","image-multi-choice","266","1443704","0.0-1.0-265.0","{""Q0"":""Orange-crowned Warbler""}","Nashville Warbler","Wood-Warblers","868"
"","2205","image-multi-choice","267","1446920","0.0-1.0-266.0","{""Q0"":""White-throated Sparrow""}","White-throated Sparrow","New World Sparrows and Allies","764"
"","2813","image-multi-choice","268","1450744","0.0-1.0-267.0","{""Q0"":""White-crowned Sparrow""}","White-crowned Sparrow","New World Sparrows and Allies","766"
"","2829","image-multi-choice","269","1454584","0.0-1.0-268.0","{""Q0"":""American Tree Sparrow""}","American Tree Sparrow","New World Sparrows and Allies","894"
"","2325","image-multi-choice","270","1457920","0.0-1.0-269.0","{""Q0"":""White-throated Sparrow""}","White-throated Sparrow","New World Sparrows and Allies","764"
"","2005","image-multi-choice","271","1460936","0.0-1.0-270.0","{""Q0"":""White-crowned Sparrow""}","White-crowned Sparrow","New World Sparrows and Allies","766"
"","2013","image-multi-choice","272","1463960","0.0-1.0-271.0","{""Q0"":""Yellow Warbler""}","Yellow Warbler","Wood-Warblers","875"
"","4749","image-multi-choice","273","1469719","0.0-1.0-272.0","{""Q0"":""Lark Sparrow""}","Chipping Sparrow","New World Sparrows and Allies","769"
"","4253","image-multi-choice","274","1474983","0.0-1.0-273.0","{""Q0"":""Ovenbird""}","Ovenbird","Wood-Warblers","860"
"","4877","image-multi-choice","275","1480872","0.0-1.0-274.0","{""Q0"":""Northern Waterthrush""}","Northern Waterthrush","Wood-Warblers","862"
"","4964","image-multi-choice","276","1486847","0.0-1.0-275.0","{""Q0"":""Ovenbird""}","Ovenbird","Wood-Warblers","860"
"","4077","image-multi-choice","277","1491935","0.0-1.0-276.0","{""Q0"":""Magnolia Warbler""}","Black-and-white Warbler","Wood-Warblers","864"
"","2811","image-multi-choice","278","1495759","0.0-1.0-277.0","{""Q0"":""White-throated Sparrow""}","Chipping Sparrow","New World Sparrows and Allies","769"
"","2326","image-multi-choice","279","1499095","0.0-1.0-278.0","{""Q0"":""Vesper Sparrow""}","Fox Sparrow","New World Sparrows and Allies","901"
"","3492","image-multi-choice","280","1503599","0.0-1.0-279.0","{""Q0"":""Magnolia Warbler""}","Magnolia Warbler","Wood-Warblers","758"
"","2125","image-multi-choice","281","1506735","0.0-1.0-280.0","{""Q0"":""White-crowned Sparrow""}","White-crowned Sparrow","New World Sparrows and Allies","766"
"","2844","image-multi-choice","282","1510591","0.0-1.0-281.0","{""Q0"":""White-throated Sparrow""}","White-throated Sparrow","New World Sparrows and Allies","764"
"","3092","image-multi-choice","283","1514695","0.0-1.0-282.0","{""Q0"":""Swamp Sparrow""}","Swamp Sparrow","New World Sparrows and Allies","904"
"","9014","image-multi-choice","284","1524719","0.0-1.0-283.0","{""Q0"":""Tennessee Warbler""}","Magnolia Warbler","Wood-Warblers","758"
"","2908","image-multi-choice","285","1528639","0.0-1.0-284.0","{""Q0"":""Yellow Warbler""}","Orange-crowned Warbler","Wood-Warblers","867"
"","3732","image-multi-choice","286","1533383","0.0-1.0-285.0","{""Q0"":""Magnolia Warbler""}","Magnolia Warbler","Wood-Warblers","758"
"","3878","image-multi-choice","287","1538271","0.0-1.0-286.0","{""Q0"":""Fox Sparrow""}","Vesper Sparrow","New World Sparrows and Allies","898"
"","14876","image-multi-choice","288","1554159","0.0-1.0-287.0","{""Q0"":""Northern Waterthrush""}","Northern Waterthrush","Wood-Warblers","862"
"","5227","image-multi-choice","289","1560407","0.0-1.0-288.0","{""Q0"":""Magnolia Warbler""}","Blackburnian Warbler","Wood-Warblers","874"
"","5138","image-multi-choice","290","1566559","0.0-1.0-289.0","{""Q0"":""Yellow Warbler""}","Tennessee Warbler","Wood-Warblers","866"
"","3880","image-multi-choice","291","1571463","0.0-1.0-290.0","{""Q0"":""White-throated Sparrow""}","Lark Sparrow","New World Sparrows and Allies","899"
"","3342","image-multi-choice","292","1575823","0.0-1.0-291.0","{""Q0"":""Black-and-white Warbler""}","Black-and-white Warbler","Wood-Warblers","864"
"","3182","image-multi-choice","293","1580031","0.0-1.0-292.0","{""Q0"":""Fox Sparrow""}","Lincoln's Sparrow","New World Sparrows and Allies","903"
"","5530","image-multi-choice","294","1586575","0.0-1.0-293.0","{""Q0"":""Orange-crowned Warbler""}","Tennessee Warbler","Wood-Warblers","866"
"","3762","image-multi-choice","295","1591359","0.0-1.0-294.0","{""Q0"":""Ovenbird""}","Ovenbird","Wood-Warblers","860"
"","9203","image-multi-choice","296","1601574","0.0-1.0-295.0","{""Q0"":""Swamp Sparrow""}","Vesper Sparrow","New World Sparrows and Allies","898"
"","4526","image-multi-choice","297","1607126","0.0-1.0-296.0","{""Q0"":""Northern Waterthrush""}","Northern Waterthrush","Wood-Warblers","862"
"","6657","image-multi-choice","298","1614798","0.0-1.0-297.0","{""Q0"":""Chipping Sparrow""}","Chipping Sparrow","New World Sparrows and Allies","769"
"","2398","image-multi-choice","299","1618214","0.0-1.0-298.0","{""Q0"":""White-throated Sparrow""}","Lark Sparrow","New World Sparrows and Allies","899"
"","1804","image-multi-choice","300","1627771","0.0-1.0-299.0","{""Q0"":""Yellow Warbler""}","Yellow Warbler","Wood-Warblers","875"
"[{""page_index"":0,""viewing_time"":2241}]","2241","instructions","301","1631027","0.0-2.0","","","",""
