"view_history","rt","trial_type","trial_index","time_elapsed","internal_node_id","responses","bird","family","class"
"[{""page_index"":0,""viewing_time"":25575}]","25576","instructions","0","25577","0.0-0.0","","","",""
"","10966","image-multi-choice","1","37555","0.0-1.0-0.0","{""Q0"":""American Tree Sparrow""}","American Tree Sparrow","New World Sparrows and Allies","894"
"","8957","image-multi-choice","2","47520","0.0-1.0-1.0","{""Q0"":""Tennessee Warbler""}","Tennessee Warbler","Wood-Warblers","866"
"","6474","image-multi-choice","3","55002","0.0-1.0-2.0","{""Q0"":""White-crowned Sparrow""}","White-crowned Sparrow","New World Sparrows and Allies","766"
"","6802","image-multi-choice","4","62810","0.0-1.0-3.0","{""Q0"":""American Tree Sparrow""}","American Tree Sparrow","New World Sparrows and Allies","894"
"","5337","image-multi-choice","5","69154","0.0-1.0-4.0","{""Q0"":""White-crowned Sparrow""}","White-crowned Sparrow","New World Sparrows and Allies","766"
"","7708","image-multi-choice","6","77869","0.0-1.0-5.0","{""Q0"":""Blackburnian Warbler""}","Townsend's Warbler","Wood-Warblers","881"
"","9304","image-multi-choice","7","88180","0.0-1.0-6.0","{""Q0"":""Vesper Sparrow""}","Vesper Sparrow","New World Sparrows and Allies","898"
"","13300","image-multi-choice","8","102485","0.0-1.0-7.0","{""Q0"":""Orange-crowned Warbler""}","Nashville Warbler","Wood-Warblers","868"
"","15628","image-multi-choice","9","119120","0.0-1.0-8.0","{""Q0"":""Northern Waterthrush""}","Northern Waterthrush","Wood-Warblers","862"
"","4553","image-multi-choice","10","124678","0.0-1.0-9.0","{""Q0"":""Ovenbird""}","Ovenbird","Wood-Warblers","860"
"","11750","image-multi-choice","11","137434","0.0-1.0-10.0","{""Q0"":""Lincoln's Sparrow""}","Lincoln's Sparrow","New World Sparrows and Allies","903"
"","15849","image-multi-choice","12","154289","0.0-1.0-11.0","{""Q0"":""Townsend's Warbler""}","Townsend's Warbler","Wood-Warblers","881"
"","5181","image-multi-choice","13","160476","0.0-1.0-12.0","{""Q0"":""Fox Sparrow""}","Fox Sparrow","New World Sparrows and Allies","901"
"","16650","image-multi-choice","14","178133","0.0-1.0-13.0","{""Q0"":""Blackburnian Warbler""}","Blackburnian Warbler","Wood-Warblers","874"
"","6472","image-multi-choice","15","185610","0.0-1.0-14.0","{""Q0"":""Vesper Sparrow""}","Vesper Sparrow","New World Sparrows and Allies","898"
"","9309","image-multi-choice","16","195923","0.0-1.0-15.0","{""Q0"":""Black-and-white Warbler""}","Black-and-white Warbler","Wood-Warblers","864"
"","8061","image-multi-choice","17","204991","0.0-1.0-16.0","{""Q0"":""Nashville Warbler""}","Nashville Warbler","Wood-Warblers","868"
"","14402","image-multi-choice","18","220399","0.0-1.0-17.0","{""Q0"":""Swamp Sparrow""}","Lincoln's Sparrow","New World Sparrows and Allies","903"
"","27934","image-multi-choice","19","249341","0.0-1.0-18.0","{""Q0"":""Nashville Warbler""}","Nashville Warbler","Wood-Warblers","868"
"","4743","image-multi-choice","20","255089","0.0-1.0-19.0","{""Q0"":""Lark Sparrow""}","Lark Sparrow","New World Sparrows and Allies","899"
"","19066","image-multi-choice","21","275161","0.0-1.0-20.0","{""Q0"":""Townsend's Warbler""}","Magnolia Warbler","Wood-Warblers","758"
"","7249","image-multi-choice","22","283415","0.0-1.0-21.0","{""Q0"":""Blackburnian Warbler""}","Townsend's Warbler","Wood-Warblers","881"
"","13967","image-multi-choice","23","298387","0.0-1.0-22.0","{""Q0"":""American Tree Sparrow""}","Swamp Sparrow","New World Sparrows and Allies","904"
"","5309","image-multi-choice","24","304701","0.0-1.0-23.0","{""Q0"":""Tennessee Warbler""}","Tennessee Warbler","Wood-Warblers","866"
"","5973","image-multi-choice","25","311679","0.0-1.0-24.0","{""Q0"":""Ovenbird""}","Ovenbird","Wood-Warblers","860"
"","3757","image-multi-choice","26","316443","0.0-1.0-25.0","{""Q0"":""White-crowned Sparrow""}","White-crowned Sparrow","New World Sparrows and Allies","766"
"","8792","image-multi-choice","27","326241","0.0-1.0-26.0","{""Q0"":""Vesper Sparrow""}","Vesper Sparrow","New World Sparrows and Allies","898"
"","9174","image-multi-choice","28","336420","0.0-1.0-27.0","{""Q0"":""Orange-crowned Warbler""}","Orange-crowned Warbler","Wood-Warblers","867"
"","10120","image-multi-choice","29","347546","0.0-1.0-28.0","{""Q0"":""American Tree Sparrow""}","American Tree Sparrow","New World Sparrows and Allies","894"
"","7986","image-multi-choice","30","356538","0.0-1.0-29.0","{""Q0"":""Tennessee Warbler""}","Tennessee Warbler","Wood-Warblers","866"
"","8853","image-multi-choice","31","366396","0.0-1.0-30.0","{""Q0"":""Blackburnian Warbler""}","Magnolia Warbler","Wood-Warblers","758"
"","4589","image-multi-choice","32","371992","0.0-1.0-31.0","{""Q0"":""Blackburnian Warbler""}","Blackburnian Warbler","Wood-Warblers","874"
"","3953","image-multi-choice","33","376951","0.0-1.0-32.0","{""Q0"":""Tennessee Warbler""}","Tennessee Warbler","Wood-Warblers","866"
"","9367","image-multi-choice","34","387322","0.0-1.0-33.0","{""Q0"":""Vesper Sparrow""}","Vesper Sparrow","New World Sparrows and Allies","898"
"","4666","image-multi-choice","35","392994","0.0-1.0-34.0","{""Q0"":""Tennessee Warbler""}","Orange-crowned Warbler","Wood-Warblers","867"
"","3441","image-multi-choice","36","397442","0.0-1.0-35.0","{""Q0"":""White-throated Sparrow""}","White-crowned Sparrow","New World Sparrows and Allies","766"
"","6419","image-multi-choice","37","404866","0.0-1.0-36.0","{""Q0"":""Fox Sparrow""}","Fox Sparrow","New World Sparrows and Allies","901"
"","9725","image-multi-choice","38","415598","0.0-1.0-37.0","{""Q0"":""Lark Sparrow""}","Swamp Sparrow","New World Sparrows and Allies","904"
"","15582","image-multi-choice","39","432187","0.0-1.0-38.0","{""Q0"":""Yellow Warbler""}","Yellow Warbler","Wood-Warblers","875"
"","6275","image-multi-choice","40","439466","0.0-1.0-39.0","{""Q0"":""Blackburnian Warbler""}","Black-and-white Warbler","Wood-Warblers","864"
"","4024","image-multi-choice","41","444496","0.0-1.0-40.0","{""Q0"":""Fox Sparrow""}","Fox Sparrow","New World Sparrows and Allies","901"
"","4295","image-multi-choice","42","449796","0.0-1.0-41.0","{""Q0"":""Northern Waterthrush""}","Northern Waterthrush","Wood-Warblers","862"
"","5714","image-multi-choice","43","456514","0.0-1.0-42.0","{""Q0"":""Nashville Warbler""}","Nashville Warbler","Wood-Warblers","868"
"","3688","image-multi-choice","44","461208","0.0-1.0-43.0","{""Q0"":""Blackburnian Warbler""}","Blackburnian Warbler","Wood-Warblers","874"
"","5076","image-multi-choice","45","467291","0.0-1.0-44.0","{""Q0"":""Orange-crowned Warbler""}","Orange-crowned Warbler","Wood-Warblers","867"
"","4847","image-multi-choice","46","473144","0.0-1.0-45.0","{""Q0"":""Blackburnian Warbler""}","Blackburnian Warbler","Wood-Warblers","874"
"","4156","image-multi-choice","47","478306","0.0-1.0-46.0","{""Q0"":""Nashville Warbler""}","Nashville Warbler","Wood-Warblers","868"
"","4190","image-multi-choice","48","483502","0.0-1.0-47.0","{""Q0"":""Northern Waterthrush""}","Northern Waterthrush","Wood-Warblers","862"
"","3926","image-multi-choice","49","488433","0.0-1.0-48.0","{""Q0"":""Fox Sparrow""}","Fox Sparrow","New World Sparrows and Allies","901"
"","17166","image-multi-choice","50","506605","0.0-1.0-49.0","{""Q0"":""Vesper Sparrow""}","Swamp Sparrow","New World Sparrows and Allies","904"
"","5884","image-multi-choice","51","513495","0.0-1.0-50.0","{""Q0"":""Nashville Warbler""}","Nashville Warbler","Wood-Warblers","868"
"","4789","image-multi-choice","52","519291","0.0-1.0-51.0","{""Q0"":""Blackburnian Warbler""}","Black-and-white Warbler","Wood-Warblers","864"
"","8833","image-multi-choice","53","529130","0.0-1.0-52.0","{""Q0"":""Swamp Sparrow""}","American Tree Sparrow","New World Sparrows and Allies","894"
"","6409","image-multi-choice","54","536545","0.0-1.0-53.0","{""Q0"":""Blackburnian Warbler""}","Black-and-white Warbler","Wood-Warblers","864"
"","6939","image-multi-choice","55","544490","0.0-1.0-54.0","{""Q0"":""Townsend's Warbler""}","Townsend's Warbler","Wood-Warblers","881"
"","7202","image-multi-choice","56","552698","0.0-1.0-55.0","{""Q0"":""Lark Sparrow""}","Lark Sparrow","New World Sparrows and Allies","899"
"","5940","image-multi-choice","57","559641","0.0-1.0-56.0","{""Q0"":""Ovenbird""}","Ovenbird","Wood-Warblers","860"
"","6198","image-multi-choice","58","566844","0.0-1.0-57.0","{""Q0"":""Lark Sparrow""}","Song Sparrow","New World Sparrows and Allies","902"
"","23347","image-multi-choice","59","591197","0.0-1.0-58.0","{""Q0"":""Chipping Sparrow""}","Chipping Sparrow","New World Sparrows and Allies","769"
"","12223","image-multi-choice","60","636946","0.0-1.0-59.0","{""Q0"":""Black-and-white Warbler""}","Black-and-white Warbler","Wood-Warblers","864"
"","13332","image-multi-choice","61","651285","0.0-1.0-60.0","{""Q0"":""Chipping Sparrow""}","Chipping Sparrow","New World Sparrows and Allies","769"
"","5779","image-multi-choice","62","658071","0.0-1.0-61.0","{""Q0"":""Lincoln's Sparrow""}","Swamp Sparrow","New World Sparrows and Allies","904"
"","7733","image-multi-choice","63","666810","0.0-1.0-62.0","{""Q0"":""Nashville Warbler""}","Nashville Warbler","Wood-Warblers","868"
"","9328","image-multi-choice","64","677145","0.0-1.0-63.0","{""Q0"":""Lincoln's Sparrow""}","Lincoln's Sparrow","New World Sparrows and Allies","903"
"","7461","image-multi-choice","65","685611","0.0-1.0-64.0","{""Q0"":""Blackburnian Warbler""}","Black-and-white Warbler","Wood-Warblers","864"
"","4369","image-multi-choice","66","690984","0.0-1.0-65.0","{""Q0"":""Fox Sparrow""}","Fox Sparrow","New World Sparrows and Allies","901"
"","7713","image-multi-choice","67","699706","0.0-1.0-66.0","{""Q0"":""Blackburnian Warbler""}","Townsend's Warbler","Wood-Warblers","881"
"","38983","image-multi-choice","68","739696","0.0-1.0-67.0","{""Q0"":""Orange-crowned Warbler""}","Yellow Warbler","Wood-Warblers","875"
"","5526","image-multi-choice","69","746227","0.0-1.0-68.0","{""Q0"":""Tennessee Warbler""}","Tennessee Warbler","Wood-Warblers","866"
"","5055","image-multi-choice","70","752290","0.0-1.0-69.0","{""Q0"":""Ovenbird""}","Ovenbird","Wood-Warblers","860"
"","6622","image-multi-choice","71","759916","0.0-1.0-70.0","{""Q0"":""Townsend's Warbler""}","Townsend's Warbler","Wood-Warblers","881"
"","10523","image-multi-choice","72","771446","0.0-1.0-71.0","{""Q0"":""Black-and-white Warbler""}","Black-and-white Warbler","Wood-Warblers","864"
"","7202","image-multi-choice","73","779655","0.0-1.0-72.0","{""Q0"":""Lark Sparrow""}","Song Sparrow","New World Sparrows and Allies","902"
"","4498","image-multi-choice","74","785159","0.0-1.0-73.0","{""Q0"":""Northern Waterthrush""}","Northern Waterthrush","Wood-Warblers","862"
"","7176","image-multi-choice","75","793341","0.0-1.0-74.0","{""Q0"":""Swamp Sparrow""}","Swamp Sparrow","New World Sparrows and Allies","904"
"","10810","image-multi-choice","76","805156","0.0-1.0-75.0","{""Q0"":""White-throated Sparrow""}","White-crowned Sparrow","New World Sparrows and Allies","766"
"","4171","image-multi-choice","77","810333","0.0-1.0-76.0","{""Q0"":""White-throated Sparrow""}","White-throated Sparrow","New World Sparrows and Allies","764"
"","9299","image-multi-choice","78","820636","0.0-1.0-77.0","{""Q0"":""Townsend's Warbler""}","Townsend's Warbler","Wood-Warblers","881"
"","4804","image-multi-choice","79","826448","0.0-1.0-78.0","{""Q0"":""Lincoln's Sparrow""}","Vesper Sparrow","New World Sparrows and Allies","898"
"","3843","image-multi-choice","80","831298","0.0-1.0-79.0","{""Q0"":""White-throated Sparrow""}","White-throated Sparrow","New World Sparrows and Allies","764"
"","4595","image-multi-choice","81","836900","0.0-1.0-80.0","{""Q0"":""Northern Waterthrush""}","Northern Waterthrush","Wood-Warblers","862"
"","13327","image-multi-choice","82","851235","0.0-1.0-81.0","{""Q0"":""Magnolia Warbler""}","Yellow Warbler","Wood-Warblers","875"
"","4176","image-multi-choice","83","856418","0.0-1.0-82.0","{""Q0"":""Nashville Warbler""}","Nashville Warbler","Wood-Warblers","868"
"","3668","image-multi-choice","84","861092","0.0-1.0-83.0","{""Q0"":""Lark Sparrow""}","Lark Sparrow","New World Sparrows and Allies","899"
"","8393","image-multi-choice","85","870490","0.0-1.0-84.0","{""Q0"":""Nashville Warbler""}","Orange-crowned Warbler","Wood-Warblers","867"
"","8612","image-multi-choice","86","880108","0.0-1.0-85.0","{""Q0"":""Orange-crowned Warbler""}","Nashville Warbler","Wood-Warblers","868"
"","8535","image-multi-choice","87","889648","0.0-1.0-86.0","{""Q0"":""Black-and-white Warbler""}","Black-and-white Warbler","Wood-Warblers","864"
"","6536","image-multi-choice","88","897188","0.0-1.0-87.0","{""Q0"":""Nashville Warbler""}","Nashville Warbler","Wood-Warblers","868"
"","4019","image-multi-choice","89","902214","0.0-1.0-88.0","{""Q0"":""Ovenbird""}","Ovenbird","Wood-Warblers","860"
"","7060","image-multi-choice","90","910280","0.0-1.0-89.0","{""Q0"":""Black-and-white Warbler""}","Black-and-white Warbler","Wood-Warblers","864"
"","10779","image-multi-choice","91","922064","0.0-1.0-90.0","{""Q0"":""Chipping Sparrow""}","Chipping Sparrow","New World Sparrows and Allies","769"
"","4320","image-multi-choice","92","927389","0.0-1.0-91.0","{""Q0"":""Tennessee Warbler""}","Tennessee Warbler","Wood-Warblers","866"
"","3719","image-multi-choice","93","932114","0.0-1.0-92.0","{""Q0"":""White-throated Sparrow""}","White-throated Sparrow","New World Sparrows and Allies","764"
"","5733","image-multi-choice","94","938853","0.0-1.0-93.0","{""Q0"":""Fox Sparrow""}","Song Sparrow","New World Sparrows and Allies","902"
"","4988","image-multi-choice","95","944846","0.0-1.0-94.0","{""Q0"":""Blackburnian Warbler""}","Blackburnian Warbler","Wood-Warblers","874"
"","15304","image-multi-choice","96","961158","0.0-1.0-95.0","{""Q0"":""American Tree Sparrow""}","American Tree Sparrow","New World Sparrows and Allies","894"
"","3456","image-multi-choice","97","965619","0.0-1.0-96.0","{""Q0"":""White-throated Sparrow""}","White-throated Sparrow","New World Sparrows and Allies","764"
"","6768","image-multi-choice","98","973394","0.0-1.0-97.0","{""Q0"":""Nashville Warbler""}","Orange-crowned Warbler","Wood-Warblers","867"
"","3624","image-multi-choice","99","978024","0.0-1.0-98.0","{""Q0"":""Yellow Warbler""}","Yellow Warbler","Wood-Warblers","875"
"","4222","image-multi-choice","100","983252","0.0-1.0-99.0","{""Q0"":""Fox Sparrow""}","Fox Sparrow","New World Sparrows and Allies","901"
"","6677","image-multi-choice","101","990933","0.0-1.0-100.0","{""Q0"":""Lark Sparrow""}","Chipping Sparrow","New World Sparrows and Allies","769"
"","4029","image-multi-choice","102","995970","0.0-1.0-101.0","{""Q0"":""Northern Waterthrush""}","Northern Waterthrush","Wood-Warblers","862"
"","6547","image-multi-choice","103","1003522","0.0-1.0-102.0","{""Q0"":""Swamp Sparrow""}","Swamp Sparrow","New World Sparrows and Allies","904"
"","4639","image-multi-choice","104","1009167","0.0-1.0-103.0","{""Q0"":""Northern Waterthrush""}","Northern Waterthrush","Wood-Warblers","862"
"","8895","image-multi-choice","105","1019067","0.0-1.0-104.0","{""Q0"":""Orange-crowned Warbler""}","Yellow Warbler","Wood-Warblers","875"
"","8537","image-multi-choice","106","1028611","0.0-1.0-105.0","{""Q0"":""Magnolia Warbler""}","Magnolia Warbler","Wood-Warblers","758"
"","6979","image-multi-choice","107","1036594","0.0-1.0-106.0","{""Q0"":""Blackburnian Warbler""}","Townsend's Warbler","Wood-Warblers","881"
"","7688","image-multi-choice","108","1045287","0.0-1.0-107.0","{""Q0"":""Lark Sparrow""}","Swamp Sparrow","New World Sparrows and Allies","904"
"","3849","image-multi-choice","109","1050143","0.0-1.0-108.0","{""Q0"":""Fox Sparrow""}","Fox Sparrow","New World Sparrows and Allies","901"
"","4087","image-multi-choice","110","1055237","0.0-1.0-109.0","{""Q0"":""Yellow Warbler""}","Yellow Warbler","Wood-Warblers","875"
"","5532","image-multi-choice","111","1061775","0.0-1.0-110.0","{""Q0"":""Lincoln's Sparrow""}","Lincoln's Sparrow","New World Sparrows and Allies","903"
"","7751","image-multi-choice","112","1070533","0.0-1.0-111.0","{""Q0"":""Blackburnian Warbler""}","Townsend's Warbler","Wood-Warblers","881"
"","5758","image-multi-choice","113","1077297","0.0-1.0-112.0","{""Q0"":""White-crowned Sparrow""}","White-crowned Sparrow","New World Sparrows and Allies","766"
"","6576","image-multi-choice","114","1084879","0.0-1.0-113.0","{""Q0"":""Blackburnian Warbler""}","Blackburnian Warbler","Wood-Warblers","874"
"","6246","image-multi-choice","115","1092129","0.0-1.0-114.0","{""Q0"":""Orange-crowned Warbler""}","Nashville Warbler","Wood-Warblers","868"
"","5922","image-multi-choice","116","1099057","0.0-1.0-115.0","{""Q0"":""Tennessee Warbler""}","Tennessee Warbler","Wood-Warblers","866"
"","6156","image-multi-choice","117","1106219","0.0-1.0-116.0","{""Q0"":""Lincoln's Sparrow""}","Vesper Sparrow","New World Sparrows and Allies","898"
"","9759","image-multi-choice","118","1116985","0.0-1.0-117.0","{""Q0"":""Vesper Sparrow""}","Swamp Sparrow","New World Sparrows and Allies","904"
"","6670","image-multi-choice","119","1124661","0.0-1.0-118.0","{""Q0"":""White-crowned Sparrow""}","White-crowned Sparrow","New World Sparrows and Allies","766"
"","10295","image-multi-choice","120","1150620","0.0-1.0-119.0","{""Q0"":""Blackburnian Warbler""}","Blackburnian Warbler","Wood-Warblers","874"
"","4016","image-multi-choice","121","1155640","0.0-1.0-120.0","{""Q0"":""Fox Sparrow""}","Fox Sparrow","New World Sparrows and Allies","901"
"","7145","image-multi-choice","122","1163793","0.0-1.0-121.0","{""Q0"":""Vesper Sparrow""}","Vesper Sparrow","New World Sparrows and Allies","898"
"","6284","image-multi-choice","123","1171082","0.0-1.0-122.0","{""Q0"":""Yellow Warbler""}","Yellow Warbler","Wood-Warblers","875"
"","7218","image-multi-choice","124","1179307","0.0-1.0-123.0","{""Q0"":""Lark Sparrow""}","Song Sparrow","New World Sparrows and Allies","902"
"","7494","image-multi-choice","125","1187808","0.0-1.0-124.0","{""Q0"":""Blackburnian Warbler""}","Townsend's Warbler","Wood-Warblers","881"
"","4911","image-multi-choice","126","1193726","0.0-1.0-125.0","{""Q0"":""White-crowned Sparrow""}","White-crowned Sparrow","New World Sparrows and Allies","766"
"","4506","image-multi-choice","127","1199238","0.0-1.0-126.0","{""Q0"":""Lark Sparrow""}","Song Sparrow","New World Sparrows and Allies","902"
"","4447","image-multi-choice","128","1204691","0.0-1.0-127.0","{""Q0"":""Ovenbird""}","Ovenbird","Wood-Warblers","860"
"","8897","image-multi-choice","129","1214595","0.0-1.0-128.0","{""Q0"":""Blackburnian Warbler""}","Magnolia Warbler","Wood-Warblers","758"
"","7553","image-multi-choice","130","1223154","0.0-1.0-129.0","{""Q0"":""Swamp Sparrow""}","Swamp Sparrow","New World Sparrows and Allies","904"
"","4262","image-multi-choice","131","1228424","0.0-1.0-130.0","{""Q0"":""Lark Sparrow""}","Lark Sparrow","New World Sparrows and Allies","899"
"","6750","image-multi-choice","132","1236179","0.0-1.0-131.0","{""Q0"":""Townsend's Warbler""}","Magnolia Warbler","Wood-Warblers","758"
"","5553","image-multi-choice","133","1242738","0.0-1.0-132.0","{""Q0"":""White-throated Sparrow""}","White-throated Sparrow","New World Sparrows and Allies","764"
"","7776","image-multi-choice","134","1251520","0.0-1.0-133.0","{""Q0"":""Magnolia Warbler""}","Magnolia Warbler","Wood-Warblers","758"
"","18024","image-multi-choice","135","1270551","0.0-1.0-134.0","{""Q0"":""Yellow Warbler""}","Yellow Warbler","Wood-Warblers","875"
"","8911","image-multi-choice","136","1280469","0.0-1.0-135.0","{""Q0"":""Tennessee Warbler""}","Tennessee Warbler","Wood-Warblers","866"
"","3854","image-multi-choice","137","1285329","0.0-1.0-136.0","{""Q0"":""Ovenbird""}","Ovenbird","Wood-Warblers","860"
"","7444","image-multi-choice","138","1293780","0.0-1.0-137.0","{""Q0"":""Black-and-white Warbler""}","Black-and-white Warbler","Wood-Warblers","864"
"","13221","image-multi-choice","139","1308007","0.0-1.0-138.0","{""Q0"":""White-crowned Sparrow""}","Chipping Sparrow","New World Sparrows and Allies","769"
"","5202","image-multi-choice","140","1314215","0.0-1.0-139.0","{""Q0"":""Northern Waterthrush""}","Northern Waterthrush","Wood-Warblers","862"
"","5749","image-multi-choice","141","1320969","0.0-1.0-140.0","{""Q0"":""Lincoln's Sparrow""}","Vesper Sparrow","New World Sparrows and Allies","898"
"","3733","image-multi-choice","142","1325709","0.0-1.0-141.0","{""Q0"":""White-throated Sparrow""}","White-throated Sparrow","New World Sparrows and Allies","764"
"","5049","image-multi-choice","143","1331762","0.0-1.0-142.0","{""Q0"":""Magnolia Warbler""}","Magnolia Warbler","Wood-Warblers","758"
"","5080","image-multi-choice","144","1337846","0.0-1.0-143.0","{""Q0"":""Blackburnian Warbler""}","Blackburnian Warbler","Wood-Warblers","874"
"","3754","image-multi-choice","145","1342606","0.0-1.0-144.0","{""Q0"":""Lark Sparrow""}","Lark Sparrow","New World Sparrows and Allies","899"
"","6421","image-multi-choice","146","1350033","0.0-1.0-145.0","{""Q0"":""Fox Sparrow""}","Song Sparrow","New World Sparrows and Allies","902"
"","5025","image-multi-choice","147","1356062","0.0-1.0-146.0","{""Q0"":""White-crowned Sparrow""}","White-crowned Sparrow","New World Sparrows and Allies","766"
"","10556","image-multi-choice","148","1367624","0.0-1.0-147.0","{""Q0"":""Vesper Sparrow""}","Chipping Sparrow","New World Sparrows and Allies","769"
"","6668","image-multi-choice","149","1375302","0.0-1.0-148.0","{""Q0"":""Swamp Sparrow""}","Swamp Sparrow","New World Sparrows and Allies","904"
"","3893","image-multi-choice","150","1380200","0.0-1.0-149.0","{""Q0"":""Fox Sparrow""}","Fox Sparrow","New World Sparrows and Allies","901"
"","5136","image-multi-choice","151","1386342","0.0-1.0-150.0","{""Q0"":""Yellow Warbler""}","Yellow Warbler","Wood-Warblers","875"
"","5042","image-multi-choice","152","1392389","0.0-1.0-151.0","{""Q0"":""White-crowned Sparrow""}","White-crowned Sparrow","New World Sparrows and Allies","766"
"","3842","image-multi-choice","153","1397237","0.0-1.0-152.0","{""Q0"":""Fox Sparrow""}","Song Sparrow","New World Sparrows and Allies","902"
"","3954","image-multi-choice","154","1402197","0.0-1.0-153.0","{""Q0"":""Northern Waterthrush""}","Northern Waterthrush","Wood-Warblers","862"
"","4189","image-multi-choice","155","1407393","0.0-1.0-154.0","{""Q0"":""White-crowned Sparrow""}","White-crowned Sparrow","New World Sparrows and Allies","766"
"","3783","image-multi-choice","156","1412183","0.0-1.0-155.0","{""Q0"":""Yellow Warbler""}","Yellow Warbler","Wood-Warblers","875"
"","3277","image-multi-choice","157","1416465","0.0-1.0-156.0","{""Q0"":""White-throated Sparrow""}","White-throated Sparrow","New World Sparrows and Allies","764"
"","3647","image-multi-choice","158","1421117","0.0-1.0-157.0","{""Q0"":""White-crowned Sparrow""}","White-crowned Sparrow","New World Sparrows and Allies","766"
"","6295","image-multi-choice","159","1428419","0.0-1.0-158.0","{""Q0"":""Townsend's Warbler""}","Townsend's Warbler","Wood-Warblers","881"
"","9336","image-multi-choice","160","1438760","0.0-1.0-159.0","{""Q0"":""Nashville Warbler""}","Tennessee Warbler","Wood-Warblers","866"
"","3468","image-multi-choice","161","1443234","0.0-1.0-160.0","{""Q0"":""White-throated Sparrow""}","White-throated Sparrow","New World Sparrows and Allies","764"
"","3833","image-multi-choice","162","1448075","0.0-1.0-161.0","{""Q0"":""Fox Sparrow""}","Fox Sparrow","New World Sparrows and Allies","901"
"","9477","image-multi-choice","163","1458560","0.0-1.0-162.0","{""Q0"":""Song Sparrow""}","Song Sparrow","New World Sparrows and Allies","902"
"","3747","image-multi-choice","164","1463312","0.0-1.0-163.0","{""Q0"":""White-crowned Sparrow""}","White-crowned Sparrow","New World Sparrows and Allies","766"
"","8969","image-multi-choice","165","1473286","0.0-1.0-164.0","{""Q0"":""Lark Sparrow""}","Song Sparrow","New World Sparrows and Allies","902"
"","8286","image-multi-choice","166","1482576","0.0-1.0-165.0","{""Q0"":""Chipping Sparrow""}","American Tree Sparrow","New World Sparrows and Allies","894"
"","5239","image-multi-choice","167","1488820","0.0-1.0-166.0","{""Q0"":""Nashville Warbler""}","Orange-crowned Warbler","Wood-Warblers","867"
"","5393","image-multi-choice","168","1495217","0.0-1.0-167.0","{""Q0"":""Lincoln's Sparrow""}","Lincoln's Sparrow","New World Sparrows and Allies","903"
"","6541","image-multi-choice","169","1502763","0.0-1.0-168.0","{""Q0"":""Black-and-white Warbler""}","Blackburnian Warbler","Wood-Warblers","874"
"","3310","image-multi-choice","170","1507080","0.0-1.0-169.0","{""Q0"":""White-throated Sparrow""}","White-throated Sparrow","New World Sparrows and Allies","764"
"","3311","image-multi-choice","171","1511398","0.0-1.0-170.0","{""Q0"":""Fox Sparrow""}","Fox Sparrow","New World Sparrows and Allies","901"
"","7081","image-multi-choice","172","1519483","0.0-1.0-171.0","{""Q0"":""Chipping Sparrow""}","Chipping Sparrow","New World Sparrows and Allies","769"
"","9169","image-multi-choice","173","1529657","0.0-1.0-172.0","{""Q0"":""Swamp Sparrow""}","Swamp Sparrow","New World Sparrows and Allies","904"
"","4902","image-multi-choice","174","1535564","0.0-1.0-173.0","{""Q0"":""Lincoln's Sparrow""}","Lincoln's Sparrow","New World Sparrows and Allies","903"
"","6272","image-multi-choice","175","1542840","0.0-1.0-174.0","{""Q0"":""Swamp Sparrow""}","Swamp Sparrow","New World Sparrows and Allies","904"
"","6189","image-multi-choice","176","1550036","0.0-1.0-175.0","{""Q0"":""Blackburnian Warbler""}","Townsend's Warbler","Wood-Warblers","881"
"","5585","image-multi-choice","177","1556628","0.0-1.0-176.0","{""Q0"":""American Tree Sparrow""}","American Tree Sparrow","New World Sparrows and Allies","894"
"","4079","image-multi-choice","178","1561711","0.0-1.0-177.0","{""Q0"":""Fox Sparrow""}","Fox Sparrow","New World Sparrows and Allies","901"
"","8864","image-multi-choice","179","1571581","0.0-1.0-178.0","{""Q0"":""Lark Sparrow""}","Lincoln's Sparrow","New World Sparrows and Allies","903"
"","6530","image-multi-choice","180","1600717","0.0-1.0-179.0","{""Q0"":""Magnolia Warbler""}","Magnolia Warbler","Wood-Warblers","758"
"","6974","image-multi-choice","181","1608695","0.0-1.0-180.0","{""Q0"":""Nashville Warbler""}","Orange-crowned Warbler","Wood-Warblers","867"
"","6151","image-multi-choice","182","1615851","0.0-1.0-181.0","{""Q0"":""Orange-crowned Warbler""}","Tennessee Warbler","Wood-Warblers","866"
"","8857","image-multi-choice","183","1625714","0.0-1.0-182.0","{""Q0"":""Lincoln's Sparrow""}","Vesper Sparrow","New World Sparrows and Allies","898"
"","5737","image-multi-choice","184","1632457","0.0-1.0-183.0","{""Q0"":""Blackburnian Warbler""}","Blackburnian Warbler","Wood-Warblers","874"
"","4709","image-multi-choice","185","1638173","0.0-1.0-184.0","{""Q0"":""Lincoln's Sparrow""}","Lincoln's Sparrow","New World Sparrows and Allies","903"
"","11218","image-multi-choice","186","1650397","0.0-1.0-185.0","{""Q0"":""Townsend's Warbler""}","Townsend's Warbler","Wood-Warblers","881"
"","5980","image-multi-choice","187","1657382","0.0-1.0-186.0","{""Q0"":""Ovenbird""}","Ovenbird","Wood-Warblers","860"
"","5762","image-multi-choice","188","1664150","0.0-1.0-187.0","{""Q0"":""Orange-crowned Warbler""}","Orange-crowned Warbler","Wood-Warblers","867"
"","7187","image-multi-choice","189","1672343","0.0-1.0-188.0","{""Q0"":""Chipping Sparrow""}","Chipping Sparrow","New World Sparrows and Allies","769"
"","10608","image-multi-choice","190","1683956","0.0-1.0-189.0","{""Q0"":""White-throated Sparrow""}","American Tree Sparrow","New World Sparrows and Allies","894"
"","7318","image-multi-choice","191","1692280","0.0-1.0-190.0","{""Q0"":""Lincoln's Sparrow""}","Vesper Sparrow","New World Sparrows and Allies","898"
"","4258","image-multi-choice","192","1697542","0.0-1.0-191.0","{""Q0"":""Lincoln's Sparrow""}","Lincoln's Sparrow","New World Sparrows and Allies","903"
"","5654","image-multi-choice","193","1704203","0.0-1.0-192.0","{""Q0"":""Nashville Warbler""}","Tennessee Warbler","Wood-Warblers","866"
"","11364","image-multi-choice","194","1716572","0.0-1.0-193.0","{""Q0"":""American Tree Sparrow""}","American Tree Sparrow","New World Sparrows and Allies","894"
"","3774","image-multi-choice","195","1721351","0.0-1.0-194.0","{""Q0"":""Lark Sparrow""}","Lark Sparrow","New World Sparrows and Allies","899"
"","10715","image-multi-choice","196","1733071","0.0-1.0-195.0","{""Q0"":""Orange-crowned Warbler""}","Tennessee Warbler","Wood-Warblers","866"
"","5568","image-multi-choice","197","1739645","0.0-1.0-196.0","{""Q0"":""Northern Waterthrush""}","Northern Waterthrush","Wood-Warblers","862"
"","4442","image-multi-choice","198","1745093","0.0-1.0-197.0","{""Q0"":""White-throated Sparrow""}","White-throated Sparrow","New World Sparrows and Allies","764"
"","3080","image-multi-choice","199","1749178","0.0-1.0-198.0","{""Q0"":""Yellow Warbler""}","Yellow Warbler","Wood-Warblers","875"
"","3413","image-multi-choice","200","1753597","0.0-1.0-199.0","{""Q0"":""White-crowned Sparrow""}","White-crowned Sparrow","New World Sparrows and Allies","766"
"","28742","image-multi-choice","201","1783345","0.0-1.0-200.0","{""Q0"":""Vesper Sparrow""}","American Tree Sparrow","New World Sparrows and Allies","894"
"","4928","image-multi-choice","202","1789276","0.0-1.0-201.0","{""Q0"":""Ovenbird""}","Ovenbird","Wood-Warblers","860"
"","8598","image-multi-choice","203","1798881","0.0-1.0-202.0","{""Q0"":""Magnolia Warbler""}","Magnolia Warbler","Wood-Warblers","758"
"","7911","image-multi-choice","204","1807797","0.0-1.0-203.0","{""Q0"":""Black-and-white Warbler""}","Black-and-white Warbler","Wood-Warblers","864"
"","5120","image-multi-choice","205","1813923","0.0-1.0-204.0","{""Q0"":""Northern Waterthrush""}","Northern Waterthrush","Wood-Warblers","862"
"","6124","image-multi-choice","206","1821052","0.0-1.0-205.0","{""Q0"":""American Tree Sparrow""}","American Tree Sparrow","New World Sparrows and Allies","894"
"","5242","image-multi-choice","207","1827299","0.0-1.0-206.0","{""Q0"":""Magnolia Warbler""}","Magnolia Warbler","Wood-Warblers","758"
"","6666","image-multi-choice","208","1834971","0.0-1.0-207.0","{""Q0"":""Townsend's Warbler""}","Blackburnian Warbler","Wood-Warblers","874"
"","7930","image-multi-choice","209","1843907","0.0-1.0-208.0","{""Q0"":""Swamp Sparrow""}","Swamp Sparrow","New World Sparrows and Allies","904"
"","8554","image-multi-choice","210","1853469","0.0-1.0-209.0","{""Q0"":""American Tree Sparrow""}","American Tree Sparrow","New World Sparrows and Allies","894"
"","4217","image-multi-choice","211","1858691","0.0-1.0-210.0","{""Q0"":""Ovenbird""}","Ovenbird","Wood-Warblers","860"
"","13059","image-multi-choice","212","1872754","0.0-1.0-211.0","{""Q0"":""Chipping Sparrow""}","Swamp Sparrow","New World Sparrows and Allies","904"
"","5386","image-multi-choice","213","1879143","0.0-1.0-212.0","{""Q0"":""Song Sparrow""}","Song Sparrow","New World Sparrows and Allies","902"
"","5813","image-multi-choice","214","1885962","0.0-1.0-213.0","{""Q0"":""Blackburnian Warbler""}","Blackburnian Warbler","Wood-Warblers","874"
"","8963","image-multi-choice","215","1895931","0.0-1.0-214.0","{""Q0"":""Vesper Sparrow""}","Vesper Sparrow","New World Sparrows and Allies","898"
"","6551","image-multi-choice","216","1903487","0.0-1.0-215.0","{""Q0"":""Blackburnian Warbler""}","Blackburnian Warbler","Wood-Warblers","874"
"","8536","image-multi-choice","217","1913030","0.0-1.0-216.0","{""Q0"":""Song Sparrow""}","Song Sparrow","New World Sparrows and Allies","902"
"","6092","image-multi-choice","218","1920128","0.0-1.0-217.0","{""Q0"":""Nashville Warbler""}","Tennessee Warbler","Wood-Warblers","866"
"","7826","image-multi-choice","219","1928961","0.0-1.0-218.0","{""Q0"":""Black-and-white Warbler""}","Black-and-white Warbler","Wood-Warblers","864"
"","5799","image-multi-choice","220","1935765","0.0-1.0-219.0","{""Q0"":""Ovenbird""}","Ovenbird","Wood-Warblers","860"
"","3738","image-multi-choice","221","1940509","0.0-1.0-220.0","{""Q0"":""White-throated Sparrow""}","White-throated Sparrow","New World Sparrows and Allies","764"
"","8698","image-multi-choice","222","1950213","0.0-1.0-221.0","{""Q0"":""Vesper Sparrow""}","Vesper Sparrow","New World Sparrows and Allies","898"
"","5861","image-multi-choice","223","1957079","0.0-1.0-222.0","{""Q0"":""American Tree Sparrow""}","American Tree Sparrow","New World Sparrows and Allies","894"
"","3580","image-multi-choice","224","1961667","0.0-1.0-223.0","{""Q0"":""Yellow Warbler""}","Yellow Warbler","Wood-Warblers","875"
"","3793","image-multi-choice","225","1966467","0.0-1.0-224.0","{""Q0"":""Northern Waterthrush""}","Northern Waterthrush","Wood-Warblers","862"
"","4955","image-multi-choice","226","1972427","0.0-1.0-225.0","{""Q0"":""Blackburnian Warbler""}","Blackburnian Warbler","Wood-Warblers","874"
"","3778","image-multi-choice","227","1977211","0.0-1.0-226.0","{""Q0"":""White-throated Sparrow""}","White-throated Sparrow","New World Sparrows and Allies","764"
"","6457","image-multi-choice","228","1984674","0.0-1.0-227.0","{""Q0"":""Song Sparrow""}","Song Sparrow","New World Sparrows and Allies","902"
"","7989","image-multi-choice","229","1993667","0.0-1.0-228.0","{""Q0"":""Ovenbird""}","Ovenbird","Wood-Warblers","860"
"","6598","image-multi-choice","230","2001273","0.0-1.0-229.0","{""Q0"":""Townsend's Warbler""}","Townsend's Warbler","Wood-Warblers","881"
"","4496","image-multi-choice","231","2006775","0.0-1.0-230.0","{""Q0"":""Nashville Warbler""}","Nashville Warbler","Wood-Warblers","868"
"","3433","image-multi-choice","232","2011215","0.0-1.0-231.0","{""Q0"":""Fox Sparrow""}","Fox Sparrow","New World Sparrows and Allies","901"
"","4226","image-multi-choice","233","2016447","0.0-1.0-232.0","{""Q0"":""Ovenbird""}","Ovenbird","Wood-Warblers","860"
"","5942","image-multi-choice","234","2023395","0.0-1.0-233.0","{""Q0"":""Magnolia Warbler""}","Magnolia Warbler","Wood-Warblers","758"
"","13258","image-multi-choice","235","2037659","0.0-1.0-234.0","{""Q0"":""Song Sparrow""}","American Tree Sparrow","New World Sparrows and Allies","894"
"","6292","image-multi-choice","236","2044956","0.0-1.0-235.0","{""Q0"":""Blackburnian Warbler""}","Blackburnian Warbler","Wood-Warblers","874"
"","9446","image-multi-choice","237","2055407","0.0-1.0-236.0","{""Q0"":""Lark Sparrow""}","Chipping Sparrow","New World Sparrows and Allies","769"
"","3456","image-multi-choice","238","2059869","0.0-1.0-237.0","{""Q0"":""Fox Sparrow""}","Fox Sparrow","New World Sparrows and Allies","901"
"","7144","image-multi-choice","239","2068019","0.0-1.0-238.0","{""Q0"":""Lark Sparrow""}","Vesper Sparrow","New World Sparrows and Allies","898"
"","6827","image-multi-choice","240","2095784","0.0-1.0-239.0","{""Q0"":""Northern Waterthrush""}","Northern Waterthrush","Wood-Warblers","862"
"","4161","image-multi-choice","241","2100950","0.0-1.0-240.0","{""Q0"":""Lark Sparrow""}","Lark Sparrow","New World Sparrows and Allies","899"
"","3943","image-multi-choice","242","2105898","0.0-1.0-241.0","{""Q0"":""Nashville Warbler""}","Nashville Warbler","Wood-Warblers","868"
"","4849","image-multi-choice","243","2111754","0.0-1.0-242.0","{""Q0"":""Ovenbird""}","Ovenbird","Wood-Warblers","860"
"","5138","image-multi-choice","244","2117898","0.0-1.0-243.0","{""Q0"":""Northern Waterthrush""}","Northern Waterthrush","Wood-Warblers","862"
"","5392","image-multi-choice","245","2124296","0.0-1.0-244.0","{""Q0"":""Orange-crowned Warbler""}","Orange-crowned Warbler","Wood-Warblers","867"
"","6553","image-multi-choice","246","2131855","0.0-1.0-245.0","{""Q0"":""Lark Sparrow""}","Chipping Sparrow","New World Sparrows and Allies","769"
"","6689","image-multi-choice","247","2139550","0.0-1.0-246.0","{""Q0"":""Tennessee Warbler""}","Tennessee Warbler","Wood-Warblers","866"
"","4417","image-multi-choice","248","2144973","0.0-1.0-247.0","{""Q0"":""Yellow Warbler""}","Yellow Warbler","Wood-Warblers","875"
"","4635","image-multi-choice","249","2150615","0.0-1.0-248.0","{""Q0"":""Lincoln's Sparrow""}","Lincoln's Sparrow","New World Sparrows and Allies","903"
"","4428","image-multi-choice","250","2156049","0.0-1.0-249.0","{""Q0"":""Fox Sparrow""}","Vesper Sparrow","New World Sparrows and Allies","898"
"","6231","image-multi-choice","251","2163284","0.0-1.0-250.0","{""Q0"":""Black-and-white Warbler""}","Black-and-white Warbler","Wood-Warblers","864"
"","11910","image-multi-choice","252","2176200","0.0-1.0-251.0","{""Q0"":""Song Sparrow""}","Song Sparrow","New World Sparrows and Allies","902"
"","7096","image-multi-choice","253","2184303","0.0-1.0-252.0","{""Q0"":""Chipping Sparrow""}","Chipping Sparrow","New World Sparrows and Allies","769"
"","5302","image-multi-choice","254","2190610","0.0-1.0-253.0","{""Q0"":""Magnolia Warbler""}","Magnolia Warbler","Wood-Warblers","758"
"","4329","image-multi-choice","255","2195944","0.0-1.0-254.0","{""Q0"":""Lincoln's Sparrow""}","Lincoln's Sparrow","New World Sparrows and Allies","903"
"","3680","image-multi-choice","256","2200630","0.0-1.0-255.0","{""Q0"":""White-throated Sparrow""}","White-throated Sparrow","New World Sparrows and Allies","764"
"","3652","image-multi-choice","257","2205288","0.0-1.0-256.0","{""Q0"":""Fox Sparrow""}","Fox Sparrow","New World Sparrows and Allies","901"
"","7264","image-multi-choice","258","2213560","0.0-1.0-257.0","{""Q0"":""Black-and-white Warbler""}","Black-and-white Warbler","Wood-Warblers","864"
"","9154","image-multi-choice","259","2223720","0.0-1.0-258.0","{""Q0"":""Fox Sparrow""}","Chipping Sparrow","New World Sparrows and Allies","769"
"","5563","image-multi-choice","260","2230288","0.0-1.0-259.0","{""Q0"":""Nashville Warbler""}","Orange-crowned Warbler","Wood-Warblers","867"
"","3766","image-multi-choice","261","2235060","0.0-1.0-260.0","{""Q0"":""Lark Sparrow""}","Lark Sparrow","New World Sparrows and Allies","899"
"","4378","image-multi-choice","262","2240444","0.0-1.0-261.0","{""Q0"":""Lincoln's Sparrow""}","Lincoln's Sparrow","New World Sparrows and Allies","903"
"","6748","image-multi-choice","263","2248199","0.0-1.0-262.0","{""Q0"":""Northern Waterthrush""}","Northern Waterthrush","Wood-Warblers","862"
"","4689","image-multi-choice","264","2253892","0.0-1.0-263.0","{""Q0"":""Nashville Warbler""}","Nashville Warbler","Wood-Warblers","868"
"","3559","image-multi-choice","265","2258458","0.0-1.0-264.0","{""Q0"":""Lark Sparrow""}","Lark Sparrow","New World Sparrows and Allies","899"
"","7002","image-multi-choice","266","2266466","0.0-1.0-265.0","{""Q0"":""Orange-crowned Warbler""}","Orange-crowned Warbler","Wood-Warblers","867"
"","7137","image-multi-choice","267","2274610","0.0-1.0-266.0","{""Q0"":""Magnolia Warbler""}","Magnolia Warbler","Wood-Warblers","758"
"","5996","image-multi-choice","268","2281612","0.0-1.0-267.0","{""Q0"":""Orange-crowned Warbler""}","Orange-crowned Warbler","Wood-Warblers","867"
"","5460","image-multi-choice","269","2288078","0.0-1.0-268.0","{""Q0"":""Yellow Warbler""}","Yellow Warbler","Wood-Warblers","875"
"","5228","image-multi-choice","270","2294312","0.0-1.0-269.0","{""Q0"":""Orange-crowned Warbler""}","Orange-crowned Warbler","Wood-Warblers","867"
"","4522","image-multi-choice","271","2299840","0.0-1.0-270.0","{""Q0"":""Lincoln's Sparrow""}","Lincoln's Sparrow","New World Sparrows and Allies","903"
"","3404","image-multi-choice","272","2304252","0.0-1.0-271.0","{""Q0"":""Lark Sparrow""}","Lark Sparrow","New World Sparrows and Allies","899"
"","4347","image-multi-choice","273","2309606","0.0-1.0-272.0","{""Q0"":""Lincoln's Sparrow""}","Lincoln's Sparrow","New World Sparrows and Allies","903"
"","4973","image-multi-choice","274","2315587","0.0-1.0-273.0","{""Q0"":""Nashville Warbler""}","Nashville Warbler","Wood-Warblers","868"
"","3853","image-multi-choice","275","2320446","0.0-1.0-274.0","{""Q0"":""Lark Sparrow""}","Lark Sparrow","New World Sparrows and Allies","899"
"","6167","image-multi-choice","276","2327618","0.0-1.0-275.0","{""Q0"":""Chipping Sparrow""}","Chipping Sparrow","New World Sparrows and Allies","769"
"","3736","image-multi-choice","277","2332360","0.0-1.0-276.0","{""Q0"":""White-throated Sparrow""}","White-throated Sparrow","New World Sparrows and Allies","764"
"","9894","image-multi-choice","278","2343259","0.0-1.0-277.0","{""Q0"":""Lark Sparrow""}","Song Sparrow","New World Sparrows and Allies","902"
"","4399","image-multi-choice","279","2348666","0.0-1.0-278.0","{""Q0"":""Ovenbird""}","Ovenbird","Wood-Warblers","860"
"","3685","image-multi-choice","280","2353356","0.0-1.0-279.0","{""Q0"":""Lark Sparrow""}","Lark Sparrow","New World Sparrows and Allies","899"
"","3754","image-multi-choice","281","2358115","0.0-1.0-280.0","{""Q0"":""Chipping Sparrow""}","Chipping Sparrow","New World Sparrows and Allies","769"
"","3497","image-multi-choice","282","2362619","0.0-1.0-281.0","{""Q0"":""Lark Sparrow""}","Lark Sparrow","New World Sparrows and Allies","899"
"","9134","image-multi-choice","283","2372760","0.0-1.0-282.0","{""Q0"":""Fox Sparrow""}","Song Sparrow","New World Sparrows and Allies","902"
"","5212","image-multi-choice","284","2378977","0.0-1.0-283.0","{""Q0"":""White-throated Sparrow""}","White-throated Sparrow","New World Sparrows and Allies","764"
"","4816","image-multi-choice","285","2384801","0.0-1.0-284.0","{""Q0"":""Magnolia Warbler""}","Magnolia Warbler","Wood-Warblers","758"
"","4366","image-multi-choice","286","2390173","0.0-1.0-285.0","{""Q0"":""Orange-crowned Warbler""}","Orange-crowned Warbler","Wood-Warblers","867"
"","6488","image-multi-choice","287","2397667","0.0-1.0-286.0","{""Q0"":""Lincoln's Sparrow""}","Lincoln's Sparrow","New World Sparrows and Allies","903"
"","3808","image-multi-choice","288","2402482","0.0-1.0-287.0","{""Q0"":""Lark Sparrow""}","Lark Sparrow","New World Sparrows and Allies","899"
"","6399","image-multi-choice","289","2409885","0.0-1.0-288.0","{""Q0"":""Townsend's Warbler""}","Townsend's Warbler","Wood-Warblers","881"
"","5121","image-multi-choice","290","2416012","0.0-1.0-289.0","{""Q0"":""Black-and-white Warbler""}","Black-and-white Warbler","Wood-Warblers","864"
"","6363","image-multi-choice","291","2423381","0.0-1.0-290.0","{""Q0"":""Tennessee Warbler""}","Tennessee Warbler","Wood-Warblers","866"
"","8623","image-multi-choice","292","2433011","0.0-1.0-291.0","{""Q0"":""Vesper Sparrow""}","American Tree Sparrow","New World Sparrows and Allies","894"
"","5076","image-multi-choice","293","2439093","0.0-1.0-292.0","{""Q0"":""Chipping Sparrow""}","Chipping Sparrow","New World Sparrows and Allies","769"
"","4656","image-multi-choice","294","2444755","0.0-1.0-293.0","{""Q0"":""Lark Sparrow""}","Lark Sparrow","New World Sparrows and Allies","899"
"","5969","image-multi-choice","295","2451729","0.0-1.0-294.0","{""Q0"":""Magnolia Warbler""}","Magnolia Warbler","Wood-Warblers","758"
"","4593","image-multi-choice","296","2457329","0.0-1.0-295.0","{""Q0"":""Yellow Warbler""}","Yellow Warbler","Wood-Warblers","875"
"","3719","image-multi-choice","297","2462053","0.0-1.0-296.0","{""Q0"":""White-crowned Sparrow""}","White-crowned Sparrow","New World Sparrows and Allies","766"
"","3858","image-multi-choice","298","2466917","0.0-1.0-297.0","{""Q0"":""Fox Sparrow""}","Swamp Sparrow","New World Sparrows and Allies","904"
"","6521","image-multi-choice","299","2474445","0.0-1.0-298.0","{""Q0"":""Nashville Warbler""}","Orange-crowned Warbler","Wood-Warblers","867"
"","6203","image-multi-choice","300","2497009","0.0-1.0-299.0","{""Q0"":""Lincoln's Sparrow""}","Vesper Sparrow","New World Sparrows and Allies","898"
"[{""page_index"":0,""viewing_time"":2862}]","2862","instructions","301","2500874","0.0-2.0","","","",""
