[{"view_history":"[{\"page_index\":0,\"viewing_time\":18035}]","rt":18037,"trial_type":"instructions","trial_index":0,"time_elapsed":18038,"internal_node_id":"0.0-0.0"},{"rt":8321,"responses":"{\"Q0\":\"Townsend's Warbler\"}","bird":["Townsend's Warbler"],"family":["Wood-Warblers"],"class":["881"],"trial_type":"image-multi-choice","trial_index":1,"time_elapsed":27402,"internal_node_id":"0.0-1.0-0.0"},{"rt":3622,"responses":"{\"Q0\":\"Lark Sparrow\"}","bird":["Lark Sparrow"],"family":["New World Sparrows and Allies"],"class":["899"],"trial_type":"image-multi-choice","trial_index":2,"time_elapsed":32068,"internal_node_id":"0.0-1.0-1.0"},{"rt":3968,"responses":"{\"Q0\":\"White-crowned Sparrow\"}","bird":["White-crowned Sparrow"],"family":["New World Sparrows and Allies"],"class":["766"],"trial_type":"image-multi-choice","trial_index":3,"time_elapsed":37075,"internal_node_id":"0.0-1.0-2.0"},{"rt":6719,"responses":"{\"Q0\":\"Lark Sparrow\"}","bird":["Lark Sparrow"],"family":["New World Sparrows and Allies"],"class":["899"],"trial_type":"image-multi-choice","trial_index":4,"time_elapsed":44844,"internal_node_id":"0.0-1.0-3.0"},{"rt":4926,"responses":"{\"Q0\":\"White-throated Sparrow\"}","bird":["White-throated Sparrow"],"family":["New World Sparrows and Allies"],"class":["764"],"trial_type":"image-multi-choice","trial_index":5,"time_elapsed":50793,"internal_node_id":"0.0-1.0-4.0"},{"rt":3804,"responses":"{\"Q0\":\"White-crowned Sparrow\"}","bird":["White-crowned Sparrow"],"family":["New World Sparrows and Allies"],"class":["766"],"trial_type":"image-multi-choice","trial_index":6,"time_elapsed":55618,"internal_node_id":"0.0-1.0-5.0"},{"rt":12844,"responses":"{\"Q0\":\"Tennessee Warbler\"}","bird":["Tennessee Warbler"],"family":["Wood-Warblers"],"class":["866"],"trial_type":"image-multi-choice","trial_index":7,"time_elapsed":69531,"internal_node_id":"0.0-1.0-6.0"},{"rt":3575,"responses":"{\"Q0\":\"White-crowned Sparrow\"}","bird":["White-crowned Sparrow"],"family":["New World Sparrows and Allies"],"class":["766"],"trial_type":"image-multi-choice","trial_index":8,"time_elapsed":74151,"internal_node_id":"0.0-1.0-7.0"},{"rt":6705,"responses":"{\"Q0\":\"Tennessee Warbler\"}","bird":["Orange-crowned Warbler"],"family":["Wood-Warblers"],"class":["867"],"trial_type":"image-multi-choice","trial_index":9,"time_elapsed":81880,"internal_node_id":"0.0-1.0-8.0"},{"rt":8248,"responses":"{\"Q0\":\"Lincoln's Sparrow\"}","bird":["Swamp Sparrow"],"family":["New World Sparrows and Allies"],"class":["904"],"trial_type":"image-multi-choice","trial_index":10,"time_elapsed":91155,"internal_node_id":"0.0-1.0-9.0"},{"rt":5428,"responses":"{\"Q0\":\"Orange-crowned Warbler\"}","bird":["Orange-crowned Warbler"],"family":["Wood-Warblers"],"class":["867"],"trial_type":"image-multi-choice","trial_index":11,"time_elapsed":97616,"internal_node_id":"0.0-1.0-10.0"},{"rt":10468,"responses":"{\"Q0\":\"White-crowned Sparrow\"}","bird":["White-crowned Sparrow"],"family":["New World Sparrows and Allies"],"class":["766"],"trial_type":"image-multi-choice","trial_index":12,"time_elapsed":109123,"internal_node_id":"0.0-1.0-11.0"},{"rt":8589,"responses":"{\"Q0\":\"Townsend's Warbler\"}","bird":["Townsend's Warbler"],"family":["Wood-Warblers"],"class":["881"],"trial_type":"image-multi-choice","trial_index":13,"time_elapsed":118746,"internal_node_id":"0.0-1.0-12.0"},{"rt":8306,"responses":"{\"Q0\":\"Lincoln's Sparrow\"}","bird":["Lincoln's Sparrow"],"family":["New World Sparrows and Allies"],"class":["903"],"trial_type":"image-multi-choice","trial_index":14,"time_elapsed":128099,"internal_node_id":"0.0-1.0-13.0"},{"rt":4891,"responses":"{\"Q0\":\"Ovenbird\"}","bird":["Ovenbird"],"family":["Wood-Warblers"],"class":["860"],"trial_type":"image-multi-choice","trial_index":15,"time_elapsed":134012,"internal_node_id":"0.0-1.0-14.0"},{"rt":6926,"responses":"{\"Q0\":\"Orange-crowned Warbler\"}","bird":["Tennessee Warbler"],"family":["Wood-Warblers"],"class":["866"],"trial_type":"image-multi-choice","trial_index":16,"time_elapsed":141960,"internal_node_id":"0.0-1.0-15.0"},{"rt":7901,"responses":"{\"Q0\":\"Vesper Sparrow\"}","bird":["Vesper Sparrow"],"family":["New World Sparrows and Allies"],"class":["898"],"trial_type":"image-multi-choice","trial_index":17,"time_elapsed":150883,"internal_node_id":"0.0-1.0-16.0"},{"rt":7547,"responses":"{\"Q0\":\"Orange-crowned Warbler\"}","bird":["Tennessee Warbler"],"family":["Wood-Warblers"],"class":["866"],"trial_type":"image-multi-choice","trial_index":18,"time_elapsed":159457,"internal_node_id":"0.0-1.0-17.0"},{"rt":7284,"responses":"{\"Q0\":\"Vesper Sparrow\"}","bird":["Vesper Sparrow"],"family":["New World Sparrows and Allies"],"class":["898"],"trial_type":"image-multi-choice","trial_index":19,"time_elapsed":167776,"internal_node_id":"0.0-1.0-18.0"},{"rt":8506,"responses":"{\"Q0\":\"Song Sparrow\"}","bird":["Song Sparrow"],"family":["New World Sparrows and Allies"],"class":["902"],"trial_type":"image-multi-choice","trial_index":20,"time_elapsed":177298,"internal_node_id":"0.0-1.0-19.0"},{"rt":8135,"responses":"{\"Q0\":\"Magnolia Warbler\"}","bird":["Magnolia Warbler"],"family":["Wood-Warblers"],"class":["758"],"trial_type":"image-multi-choice","trial_index":21,"time_elapsed":186463,"internal_node_id":"0.0-1.0-20.0"},{"rt":6741,"responses":"{\"Q0\":\"Orange-crowned Warbler\"}","bird":["Orange-crowned Warbler"],"family":["Wood-Warblers"],"class":["867"],"trial_type":"image-multi-choice","trial_index":22,"time_elapsed":194264,"internal_node_id":"0.0-1.0-21.0"},{"rt":8684,"responses":"{\"Q0\":\"Townsend's Warbler\"}","bird":["Townsend's Warbler"],"family":["Wood-Warblers"],"class":["881"],"trial_type":"image-multi-choice","trial_index":23,"time_elapsed":203960,"internal_node_id":"0.0-1.0-22.0"},{"rt":6371,"responses":"{\"Q0\":\"Ovenbird\"}","bird":["Ovenbird"],"family":["Wood-Warblers"],"class":["860"],"trial_type":"image-multi-choice","trial_index":24,"time_elapsed":211343,"internal_node_id":"0.0-1.0-23.0"},{"rt":7162,"responses":"{\"Q0\":\"Lincoln's Sparrow\"}","bird":["Lincoln's Sparrow"],"family":["New World Sparrows and Allies"],"class":["903"],"trial_type":"image-multi-choice","trial_index":25,"time_elapsed":219527,"internal_node_id":"0.0-1.0-24.0"},{"rt":9232,"responses":"{\"Q0\":\"White-crowned Sparrow\"}","bird":["White-throated Sparrow"],"family":["New World Sparrows and Allies"],"class":["764"],"trial_type":"image-multi-choice","trial_index":26,"time_elapsed":229769,"internal_node_id":"0.0-1.0-25.0"},{"rt":4957,"responses":"{\"Q0\":\"Ovenbird\"}","bird":["Ovenbird"],"family":["Wood-Warblers"],"class":["860"],"trial_type":"image-multi-choice","trial_index":27,"time_elapsed":235736,"internal_node_id":"0.0-1.0-26.0"},{"rt":5972,"responses":"{\"Q0\":\"Chipping Sparrow\"}","bird":["Chipping Sparrow"],"family":["New World Sparrows and Allies"],"class":["769"],"trial_type":"image-multi-choice","trial_index":28,"time_elapsed":242719,"internal_node_id":"0.0-1.0-27.0"},{"rt":3906,"responses":"{\"Q0\":\"Fox Sparrow\"}","bird":["Fox Sparrow"],"family":["New World Sparrows and Allies"],"class":["901"],"trial_type":"image-multi-choice","trial_index":29,"time_elapsed":247647,"internal_node_id":"0.0-1.0-28.0"},{"rt":3607,"responses":"{\"Q0\":\"Magnolia Warbler\"}","bird":["Magnolia Warbler"],"family":["Wood-Warblers"],"class":["758"],"trial_type":"image-multi-choice","trial_index":30,"time_elapsed":252263,"internal_node_id":"0.0-1.0-29.0"},{"rt":4440,"responses":"{\"Q0\":\"Northern Waterthrush\"}","bird":["Northern Waterthrush"],"family":["Wood-Warblers"],"class":["862"],"trial_type":"image-multi-choice","trial_index":31,"time_elapsed":257712,"internal_node_id":"0.0-1.0-30.0"},{"rt":6591,"responses":"{\"Q0\":\"Orange-crowned Warbler\"}","bird":["Tennessee Warbler"],"family":["Wood-Warblers"],"class":["866"],"trial_type":"image-multi-choice","trial_index":32,"time_elapsed":265311,"internal_node_id":"0.0-1.0-31.0"},{"rt":3592,"responses":"{\"Q0\":\"Magnolia Warbler\"}","bird":["Magnolia Warbler"],"family":["Wood-Warblers"],"class":["758"],"trial_type":"image-multi-choice","trial_index":33,"time_elapsed":269919,"internal_node_id":"0.0-1.0-32.0"},{"rt":10295,"responses":"{\"Q0\":\"Song Sparrow\"}","bird":["Song Sparrow"],"family":["New World Sparrows and Allies"],"class":["902"],"trial_type":"image-multi-choice","trial_index":34,"time_elapsed":281231,"internal_node_id":"0.0-1.0-33.0"},{"rt":3188,"responses":"{\"Q0\":\"Lark Sparrow\"}","bird":["Lark Sparrow"],"family":["New World Sparrows and Allies"],"class":["899"],"trial_type":"image-multi-choice","trial_index":35,"time_elapsed":285446,"internal_node_id":"0.0-1.0-34.0"},{"rt":8789,"responses":"{\"Q0\":\"Tennessee Warbler\"}","bird":["Nashville Warbler"],"family":["Wood-Warblers"],"class":["868"],"trial_type":"image-multi-choice","trial_index":36,"time_elapsed":295246,"internal_node_id":"0.0-1.0-35.0"},{"rt":3654,"responses":"{\"Q0\":\"Northern Waterthrush\"}","bird":["Northern Waterthrush"],"family":["Wood-Warblers"],"class":["862"],"trial_type":"image-multi-choice","trial_index":37,"time_elapsed":299912,"internal_node_id":"0.0-1.0-36.0"},{"rt":10257,"responses":"{\"Q0\":\"Chipping Sparrow\"}","bird":["Chipping Sparrow"],"family":["New World Sparrows and Allies"],"class":["769"],"trial_type":"image-multi-choice","trial_index":38,"time_elapsed":311183,"internal_node_id":"0.0-1.0-37.0"},{"rt":3270,"responses":"{\"Q0\":\"Yellow Warbler\"}","bird":["Yellow Warbler"],"family":["Wood-Warblers"],"class":["875"],"trial_type":"image-multi-choice","trial_index":39,"time_elapsed":315463,"internal_node_id":"0.0-1.0-38.0"},{"rt":3273,"responses":"{\"Q0\":\"Ovenbird\"}","bird":["Ovenbird"],"family":["Wood-Warblers"],"class":["860"],"trial_type":"image-multi-choice","trial_index":40,"time_elapsed":319750,"internal_node_id":"0.0-1.0-39.0"},{"rt":5608,"responses":"{\"Q0\":\"Black-and-white Warbler\"}","bird":["Black-and-white Warbler"],"family":["Wood-Warblers"],"class":["864"],"trial_type":"image-multi-choice","trial_index":41,"time_elapsed":326380,"internal_node_id":"0.0-1.0-40.0"},{"rt":26631,"responses":"{\"Q0\":\"Tennessee Warbler\"}","bird":["Tennessee Warbler"],"family":["Wood-Warblers"],"class":["866"],"trial_type":"image-multi-choice","trial_index":42,"time_elapsed":354060,"internal_node_id":"0.0-1.0-41.0"},{"rt":8993,"responses":"{\"Q0\":\"Song Sparrow\"}","bird":["Song Sparrow"],"family":["New World Sparrows and Allies"],"class":["902"],"trial_type":"image-multi-choice","trial_index":43,"time_elapsed":364073,"internal_node_id":"0.0-1.0-42.0"},{"rt":4335,"responses":"{\"Q0\":\"Blackburnian Warbler\"}","bird":["Blackburnian Warbler"],"family":["Wood-Warblers"],"class":["874"],"trial_type":"image-multi-choice","trial_index":44,"time_elapsed":369423,"internal_node_id":"0.0-1.0-43.0"},{"rt":4361,"responses":"{\"Q0\":\"Black-and-white Warbler\"}","bird":["Black-and-white Warbler"],"family":["Wood-Warblers"],"class":["864"],"trial_type":"image-multi-choice","trial_index":45,"time_elapsed":374833,"internal_node_id":"0.0-1.0-44.0"},{"rt":4563,"responses":"{\"Q0\":\"Magnolia Warbler\"}","bird":["Magnolia Warbler"],"family":["Wood-Warblers"],"class":["758"],"trial_type":"image-multi-choice","trial_index":46,"time_elapsed":380422,"internal_node_id":"0.0-1.0-45.0"},{"rt":3334,"responses":"{\"Q0\":\"Ovenbird\"}","bird":["Ovenbird"],"family":["Wood-Warblers"],"class":["860"],"trial_type":"image-multi-choice","trial_index":47,"time_elapsed":384778,"internal_node_id":"0.0-1.0-46.0"},{"rt":6668,"responses":"{\"Q0\":\"Lincoln's Sparrow\"}","bird":["Vesper Sparrow"],"family":["New World Sparrows and Allies"],"class":["898"],"trial_type":"image-multi-choice","trial_index":48,"time_elapsed":392490,"internal_node_id":"0.0-1.0-47.0"},{"rt":7963,"responses":"{\"Q0\":\"Lark Sparrow\"}","bird":["Lark Sparrow"],"family":["New World Sparrows and Allies"],"class":["899"],"trial_type":"image-multi-choice","trial_index":49,"time_elapsed":401477,"internal_node_id":"0.0-1.0-48.0"},{"rt":8275,"responses":"{\"Q0\":\"Black-and-white Warbler\"}","bird":["Black-and-white Warbler"],"family":["Wood-Warblers"],"class":["864"],"trial_type":"image-multi-choice","trial_index":50,"time_elapsed":410780,"internal_node_id":"0.0-1.0-49.0"},{"rt":9192,"responses":"{\"Q0\":\"Magnolia Warbler\"}","bird":["Townsend's Warbler"],"family":["Wood-Warblers"],"class":["881"],"trial_type":"image-multi-choice","trial_index":51,"time_elapsed":421020,"internal_node_id":"0.0-1.0-50.0"},{"rt":8659,"responses":"{\"Q0\":\"Orange-crowned Warbler\"}","bird":["Nashville Warbler"],"family":["Wood-Warblers"],"class":["868"],"trial_type":"image-multi-choice","trial_index":52,"time_elapsed":430722,"internal_node_id":"0.0-1.0-51.0"},{"rt":9566,"responses":"{\"Q0\":\"Chipping Sparrow\"}","bird":["Chipping Sparrow"],"family":["New World Sparrows and Allies"],"class":["769"],"trial_type":"image-multi-choice","trial_index":53,"time_elapsed":441351,"internal_node_id":"0.0-1.0-52.0"},{"rt":6227,"responses":"{\"Q0\":\"Vesper Sparrow\"}","bird":["Swamp Sparrow"],"family":["New World Sparrows and Allies"],"class":["904"],"trial_type":"image-multi-choice","trial_index":54,"time_elapsed":448602,"internal_node_id":"0.0-1.0-53.0"},{"rt":3378,"responses":"{\"Q0\":\"White-crowned Sparrow\"}","bird":["White-crowned Sparrow"],"family":["New World Sparrows and Allies"],"class":["766"],"trial_type":"image-multi-choice","trial_index":55,"time_elapsed":453025,"internal_node_id":"0.0-1.0-54.0"},{"rt":11130,"responses":"{\"Q0\":\"Black-and-white Warbler\"}","bird":["Black-and-white Warbler"],"family":["Wood-Warblers"],"class":["864"],"trial_type":"image-multi-choice","trial_index":56,"time_elapsed":465172,"internal_node_id":"0.0-1.0-55.0"},{"rt":7749,"responses":"{\"Q0\":\"Tennessee Warbler\"}","bird":["Tennessee Warbler"],"family":["Wood-Warblers"],"class":["866"],"trial_type":"image-multi-choice","trial_index":57,"time_elapsed":473970,"internal_node_id":"0.0-1.0-56.0"},{"rt":7833,"responses":"{\"Q0\":\"Townsend's Warbler\"}","bird":["Townsend's Warbler"],"family":["Wood-Warblers"],"class":["881"],"trial_type":"image-multi-choice","trial_index":58,"time_elapsed":482824,"internal_node_id":"0.0-1.0-57.0"},{"rt":9344,"responses":"{\"Q0\":\"Nashville Warbler\"}","bird":["Nashville Warbler"],"family":["Wood-Warblers"],"class":["868"],"trial_type":"image-multi-choice","trial_index":59,"time_elapsed":493199,"internal_node_id":"0.0-1.0-58.0"},{"rt":6047,"responses":"{\"Q0\":\"Lincoln's Sparrow\"}","bird":["Lincoln's Sparrow"],"family":["New World Sparrows and Allies"],"class":["903"],"trial_type":"image-multi-choice","trial_index":60,"time_elapsed":521198,"internal_node_id":"0.0-1.0-59.0"},{"rt":6908,"responses":"{\"Q0\":\"Song Sparrow\"}","bird":["Song Sparrow"],"family":["New World Sparrows and Allies"],"class":["902"],"trial_type":"image-multi-choice","trial_index":61,"time_elapsed":529128,"internal_node_id":"0.0-1.0-60.0"},{"rt":3133,"responses":"{\"Q0\":\"Yellow Warbler\"}","bird":["Yellow Warbler"],"family":["Wood-Warblers"],"class":["875"],"trial_type":"image-multi-choice","trial_index":62,"time_elapsed":533281,"internal_node_id":"0.0-1.0-61.0"},{"rt":3492,"responses":"{\"Q0\":\"White-throated Sparrow\"}","bird":["White-throated Sparrow"],"family":["New World Sparrows and Allies"],"class":["764"],"trial_type":"image-multi-choice","trial_index":63,"time_elapsed":537810,"internal_node_id":"0.0-1.0-62.0"},{"rt":7024,"responses":"{\"Q0\":\"Tennessee Warbler\"}","bird":["Tennessee Warbler"],"family":["Wood-Warblers"],"class":["866"],"trial_type":"image-multi-choice","trial_index":64,"time_elapsed":545872,"internal_node_id":"0.0-1.0-63.0"},{"rt":8012,"responses":"{\"Q0\":\"White-crowned Sparrow\"}","bird":["Lincoln's Sparrow"],"family":["New World Sparrows and Allies"],"class":["903"],"trial_type":"image-multi-choice","trial_index":65,"time_elapsed":554919,"internal_node_id":"0.0-1.0-64.0"},{"rt":5914,"responses":"{\"Q0\":\"Blackburnian Warbler\"}","bird":["Blackburnian Warbler"],"family":["Wood-Warblers"],"class":["874"],"trial_type":"image-multi-choice","trial_index":66,"time_elapsed":561865,"internal_node_id":"0.0-1.0-65.0"},{"rt":4820,"responses":"{\"Q0\":\"Northern Waterthrush\"}","bird":["Northern Waterthrush"],"family":["Wood-Warblers"],"class":["862"],"trial_type":"image-multi-choice","trial_index":67,"time_elapsed":567728,"internal_node_id":"0.0-1.0-66.0"},{"rt":4147,"responses":"{\"Q0\":\"Yellow Warbler\"}","bird":["Yellow Warbler"],"family":["Wood-Warblers"],"class":["875"],"trial_type":"image-multi-choice","trial_index":68,"time_elapsed":572911,"internal_node_id":"0.0-1.0-67.0"},{"rt":6899,"responses":"{\"Q0\":\"Vesper Sparrow\"}","bird":["Lincoln's Sparrow"],"family":["New World Sparrows and Allies"],"class":["903"],"trial_type":"image-multi-choice","trial_index":69,"time_elapsed":580830,"internal_node_id":"0.0-1.0-68.0"},{"rt":5922,"responses":"{\"Q0\":\"American Tree Sparrow\"}","bird":["American Tree Sparrow"],"family":["New World Sparrows and Allies"],"class":["894"],"trial_type":"image-multi-choice","trial_index":70,"time_elapsed":587789,"internal_node_id":"0.0-1.0-69.0"},{"rt":5751,"responses":"{\"Q0\":\"Orange-crowned Warbler\"}","bird":["Orange-crowned Warbler"],"family":["Wood-Warblers"],"class":["867"],"trial_type":"image-multi-choice","trial_index":71,"time_elapsed":594582,"internal_node_id":"0.0-1.0-70.0"},{"rt":4466,"responses":"{\"Q0\":\"Lincoln's Sparrow\"}","bird":["Lincoln's Sparrow"],"family":["New World Sparrows and Allies"],"class":["903"],"trial_type":"image-multi-choice","trial_index":72,"time_elapsed":600071,"internal_node_id":"0.0-1.0-71.0"},{"rt":4131,"responses":"{\"Q0\":\"Magnolia Warbler\"}","bird":["Magnolia Warbler"],"family":["Wood-Warblers"],"class":["758"],"trial_type":"image-multi-choice","trial_index":73,"time_elapsed":605257,"internal_node_id":"0.0-1.0-72.0"},{"rt":5467,"responses":"{\"Q0\":\"Vesper Sparrow\"}","bird":["Lincoln's Sparrow"],"family":["New World Sparrows and Allies"],"class":["903"],"trial_type":"image-multi-choice","trial_index":74,"time_elapsed":611762,"internal_node_id":"0.0-1.0-73.0"},{"rt":6765,"responses":"{\"Q0\":\"Yellow Warbler\"}","bird":["Yellow Warbler"],"family":["Wood-Warblers"],"class":["875"],"trial_type":"image-multi-choice","trial_index":75,"time_elapsed":619564,"internal_node_id":"0.0-1.0-74.0"},{"rt":3425,"responses":"{\"Q0\":\"White-crowned Sparrow\"}","bird":["White-crowned Sparrow"],"family":["New World Sparrows and Allies"],"class":["766"],"trial_type":"image-multi-choice","trial_index":76,"time_elapsed":624011,"internal_node_id":"0.0-1.0-75.0"},{"rt":6148,"responses":"{\"Q0\":\"Nashville Warbler\"}","bird":["Nashville Warbler"],"family":["Wood-Warblers"],"class":["868"],"trial_type":"image-multi-choice","trial_index":77,"time_elapsed":631186,"internal_node_id":"0.0-1.0-76.0"},{"rt":10214,"responses":"{\"Q0\":\"American Tree Sparrow\"}","bird":["American Tree Sparrow"],"family":["New World Sparrows and Allies"],"class":["894"],"trial_type":"image-multi-choice","trial_index":78,"time_elapsed":642423,"internal_node_id":"0.0-1.0-77.0"},{"rt":18008,"responses":"{\"Q0\":\"Magnolia Warbler\"}","bird":["Townsend's Warbler"],"family":["Wood-Warblers"],"class":["881"],"trial_type":"image-multi-choice","trial_index":79,"time_elapsed":661464,"internal_node_id":"0.0-1.0-78.0"},{"rt":11838,"responses":"{\"Q0\":\"Magnolia Warbler\"}","bird":["Chipping Sparrow"],"family":["New World Sparrows and Allies"],"class":["769"],"trial_type":"image-multi-choice","trial_index":80,"time_elapsed":674331,"internal_node_id":"0.0-1.0-79.0"},{"rt":3082,"responses":"{\"Q0\":\"White-throated Sparrow\"}","bird":["White-throated Sparrow"],"family":["New World Sparrows and Allies"],"class":["764"],"trial_type":"image-multi-choice","trial_index":81,"time_elapsed":678461,"internal_node_id":"0.0-1.0-80.0"},{"rt":3004,"responses":"{\"Q0\":\"Ovenbird\"}","bird":["Ovenbird"],"family":["Wood-Warblers"],"class":["860"],"trial_type":"image-multi-choice","trial_index":82,"time_elapsed":682488,"internal_node_id":"0.0-1.0-81.0"},{"rt":3290,"responses":"{\"Q0\":\"White-crowned Sparrow\"}","bird":["White-crowned Sparrow"],"family":["New World Sparrows and Allies"],"class":["766"],"trial_type":"image-multi-choice","trial_index":83,"time_elapsed":686822,"internal_node_id":"0.0-1.0-82.0"},{"rt":3865,"responses":"{\"Q0\":\"Magnolia Warbler\"}","bird":["Magnolia Warbler"],"family":["Wood-Warblers"],"class":["758"],"trial_type":"image-multi-choice","trial_index":84,"time_elapsed":691703,"internal_node_id":"0.0-1.0-83.0"},{"rt":3359,"responses":"{\"Q0\":\"Yellow Warbler\"}","bird":["Yellow Warbler"],"family":["Wood-Warblers"],"class":["875"],"trial_type":"image-multi-choice","trial_index":85,"time_elapsed":696078,"internal_node_id":"0.0-1.0-84.0"},{"rt":3701,"responses":"{\"Q0\":\"Lark Sparrow\"}","bird":["Lark Sparrow"],"family":["New World Sparrows and Allies"],"class":["899"],"trial_type":"image-multi-choice","trial_index":86,"time_elapsed":700807,"internal_node_id":"0.0-1.0-85.0"},{"rt":6896,"responses":"{\"Q0\":\"Lincoln's Sparrow\"}","bird":["Lincoln's Sparrow"],"family":["New World Sparrows and Allies"],"class":["903"],"trial_type":"image-multi-choice","trial_index":87,"time_elapsed":708739,"internal_node_id":"0.0-1.0-86.0"},{"rt":5045,"responses":"{\"Q0\":\"Black-and-white Warbler\"}","bird":["Black-and-white Warbler"],"family":["Wood-Warblers"],"class":["864"],"trial_type":"image-multi-choice","trial_index":88,"time_elapsed":714807,"internal_node_id":"0.0-1.0-87.0"},{"rt":4009,"responses":"{\"Q0\":\"White-crowned Sparrow\"}","bird":["White-crowned Sparrow"],"family":["New World Sparrows and Allies"],"class":["766"],"trial_type":"image-multi-choice","trial_index":89,"time_elapsed":719873,"internal_node_id":"0.0-1.0-88.0"},{"rt":9921,"responses":"{\"Q0\":\"Townsend's Warbler\"}","bird":["Townsend's Warbler"],"family":["Wood-Warblers"],"class":["881"],"trial_type":"image-multi-choice","trial_index":90,"time_elapsed":730818,"internal_node_id":"0.0-1.0-89.0"},{"rt":3064,"responses":"{\"Q0\":\"White-throated Sparrow\"}","bird":["White-throated Sparrow"],"family":["New World Sparrows and Allies"],"class":["764"],"trial_type":"image-multi-choice","trial_index":91,"time_elapsed":734912,"internal_node_id":"0.0-1.0-90.0"},{"rt":4355,"responses":"{\"Q0\":\"Magnolia Warbler\"}","bird":["Magnolia Warbler"],"family":["Wood-Warblers"],"class":["758"],"trial_type":"image-multi-choice","trial_index":92,"time_elapsed":740313,"internal_node_id":"0.0-1.0-91.0"},{"rt":5377,"responses":"{\"Q0\":\"Lincoln's Sparrow\"}","bird":["Lincoln's Sparrow"],"family":["New World Sparrows and Allies"],"class":["903"],"trial_type":"image-multi-choice","trial_index":93,"time_elapsed":746729,"internal_node_id":"0.0-1.0-92.0"},{"rt":8357,"responses":"{\"Q0\":\"Blackburnian Warbler\"}","bird":["Blackburnian Warbler"],"family":["Wood-Warblers"],"class":["874"],"trial_type":"image-multi-choice","trial_index":94,"time_elapsed":756129,"internal_node_id":"0.0-1.0-93.0"},{"rt":5392,"responses":"{\"Q0\":\"Vesper Sparrow\"}","bird":["Vesper Sparrow"],"family":["New World Sparrows and Allies"],"class":["898"],"trial_type":"image-multi-choice","trial_index":95,"time_elapsed":762536,"internal_node_id":"0.0-1.0-94.0"},{"rt":3415,"responses":"{\"Q0\":\"Lark Sparrow\"}","bird":["Lark Sparrow"],"family":["New World Sparrows and Allies"],"class":["899"],"trial_type":"image-multi-choice","trial_index":96,"time_elapsed":767006,"internal_node_id":"0.0-1.0-95.0"},{"rt":7503,"responses":"{\"Q0\":\"American Tree Sparrow\"}","bird":["Swamp Sparrow"],"family":["New World Sparrows and Allies"],"class":["904"],"trial_type":"image-multi-choice","trial_index":97,"time_elapsed":775538,"internal_node_id":"0.0-1.0-96.0"},{"rt":4173,"responses":"{\"Q0\":\"Northern Waterthrush\"}","bird":["Northern Waterthrush"],"family":["Wood-Warblers"],"class":["862"],"trial_type":"image-multi-choice","trial_index":98,"time_elapsed":780748,"internal_node_id":"0.0-1.0-97.0"},{"rt":3751,"responses":"{\"Q0\":\"Ovenbird\"}","bird":["Ovenbird"],"family":["Wood-Warblers"],"class":["860"],"trial_type":"image-multi-choice","trial_index":99,"time_elapsed":785519,"internal_node_id":"0.0-1.0-98.0"},{"rt":3533,"responses":"{\"Q0\":\"White-throated Sparrow\"}","bird":["White-throated Sparrow"],"family":["New World Sparrows and Allies"],"class":["764"],"trial_type":"image-multi-choice","trial_index":100,"time_elapsed":790070,"internal_node_id":"0.0-1.0-99.0"},{"rt":3180,"responses":"{\"Q0\":\"Nashville Warbler\"}","bird":["Nashville Warbler"],"family":["Wood-Warblers"],"class":["868"],"trial_type":"image-multi-choice","trial_index":101,"time_elapsed":794286,"internal_node_id":"0.0-1.0-100.0"},{"rt":3602,"responses":"{\"Q0\":\"Magnolia Warbler\"}","bird":["Magnolia Warbler"],"family":["Wood-Warblers"],"class":["758"],"trial_type":"image-multi-choice","trial_index":102,"time_elapsed":798902,"internal_node_id":"0.0-1.0-101.0"},{"rt":7990,"responses":"{\"Q0\":\"Chipping Sparrow\"}","bird":["Swamp Sparrow"],"family":["New World Sparrows and Allies"],"class":["904"],"trial_type":"image-multi-choice","trial_index":103,"time_elapsed":807926,"internal_node_id":"0.0-1.0-102.0"},{"rt":5188,"responses":"{\"Q0\":\"Blackburnian Warbler\"}","bird":["Blackburnian Warbler"],"family":["Wood-Warblers"],"class":["874"],"trial_type":"image-multi-choice","trial_index":104,"time_elapsed":814145,"internal_node_id":"0.0-1.0-103.0"},{"rt":3334,"responses":"{\"Q0\":\"Northern Waterthrush\"}","bird":["Northern Waterthrush"],"family":["Wood-Warblers"],"class":["862"],"trial_type":"image-multi-choice","trial_index":105,"time_elapsed":818518,"internal_node_id":"0.0-1.0-104.0"},{"rt":5747,"responses":"{\"Q0\":\"Swamp Sparrow\"}","bird":["Swamp Sparrow"],"family":["New World Sparrows and Allies"],"class":["904"],"trial_type":"image-multi-choice","trial_index":106,"time_elapsed":825304,"internal_node_id":"0.0-1.0-105.0"},{"rt":5186,"responses":"{\"Q0\":\"Song Sparrow\"}","bird":["Song Sparrow"],"family":["New World Sparrows and Allies"],"class":["902"],"trial_type":"image-multi-choice","trial_index":107,"time_elapsed":831518,"internal_node_id":"0.0-1.0-106.0"},{"rt":4044,"responses":"{\"Q0\":\"Black-and-white Warbler\"}","bird":["Black-and-white Warbler"],"family":["Wood-Warblers"],"class":["864"],"trial_type":"image-multi-choice","trial_index":108,"time_elapsed":836600,"internal_node_id":"0.0-1.0-107.0"},{"rt":5280,"responses":"{\"Q0\":\"Townsend's Warbler\"}","bird":["Blackburnian Warbler"],"family":["Wood-Warblers"],"class":["874"],"trial_type":"image-multi-choice","trial_index":109,"time_elapsed":842903,"internal_node_id":"0.0-1.0-108.0"},{"rt":3811,"responses":"{\"Q0\":\"Nashville Warbler\"}","bird":["Nashville Warbler"],"family":["Wood-Warblers"],"class":["868"],"trial_type":"image-multi-choice","trial_index":110,"time_elapsed":847768,"internal_node_id":"0.0-1.0-109.0"},{"rt":8007,"responses":"{\"Q0\":\"Chipping Sparrow\"}","bird":["Chipping Sparrow"],"family":["New World Sparrows and Allies"],"class":["769"],"trial_type":"image-multi-choice","trial_index":111,"time_elapsed":856823,"internal_node_id":"0.0-1.0-110.0"},{"rt":7305,"responses":"{\"Q0\":\"American Tree Sparrow\"}","bird":["American Tree Sparrow"],"family":["New World Sparrows and Allies"],"class":["894"],"trial_type":"image-multi-choice","trial_index":112,"time_elapsed":865174,"internal_node_id":"0.0-1.0-111.0"},{"rt":3855,"responses":"{\"Q0\":\"Northern Waterthrush\"}","bird":["Northern Waterthrush"],"family":["Wood-Warblers"],"class":["862"],"trial_type":"image-multi-choice","trial_index":113,"time_elapsed":870065,"internal_node_id":"0.0-1.0-112.0"},{"rt":3284,"responses":"{\"Q0\":\"Yellow Warbler\"}","bird":["Yellow Warbler"],"family":["Wood-Warblers"],"class":["875"],"trial_type":"image-multi-choice","trial_index":114,"time_elapsed":874374,"internal_node_id":"0.0-1.0-113.0"},{"rt":4323,"responses":"{\"Q0\":\"Orange-crowned Warbler\"}","bird":["Tennessee Warbler"],"family":["Wood-Warblers"],"class":["866"],"trial_type":"image-multi-choice","trial_index":115,"time_elapsed":879739,"internal_node_id":"0.0-1.0-114.0"},{"rt":8270,"responses":"{\"Q0\":\"Vesper Sparrow\"}","bird":["Lincoln's Sparrow"],"family":["New World Sparrows and Allies"],"class":["903"],"trial_type":"image-multi-choice","trial_index":116,"time_elapsed":889164,"internal_node_id":"0.0-1.0-115.0"},{"rt":9216,"responses":"{\"Q0\":\"Townsend's Warbler\"}","bird":["Black-and-white Warbler"],"family":["Wood-Warblers"],"class":["864"],"trial_type":"image-multi-choice","trial_index":117,"time_elapsed":899423,"internal_node_id":"0.0-1.0-116.0"},{"rt":12062,"responses":"{\"Q0\":\"Song Sparrow\"}","bird":["Song Sparrow"],"family":["New World Sparrows and Allies"],"class":["902"],"trial_type":"image-multi-choice","trial_index":118,"time_elapsed":912518,"internal_node_id":"0.0-1.0-117.0"},{"rt":6307,"responses":"{\"Q0\":\"Lincoln's Sparrow\"}","bird":["Lincoln's Sparrow"],"family":["New World Sparrows and Allies"],"class":["903"],"trial_type":"image-multi-choice","trial_index":119,"time_elapsed":919856,"internal_node_id":"0.0-1.0-118.0"},{"rt":3646,"responses":"{\"Q0\":\"Blackburnian Warbler\"}","bird":["Blackburnian Warbler"],"family":["Wood-Warblers"],"class":["874"],"trial_type":"image-multi-choice","trial_index":120,"time_elapsed":935468,"internal_node_id":"0.0-1.0-119.0"},{"rt":6166,"responses":"{\"Q0\":\"Nashville Warbler\"}","bird":["Nashville Warbler"],"family":["Wood-Warblers"],"class":["868"],"trial_type":"image-multi-choice","trial_index":121,"time_elapsed":942674,"internal_node_id":"0.0-1.0-120.0"},{"rt":6837,"responses":"{\"Q0\":\"Lincoln's Sparrow\"}","bird":["Vesper Sparrow"],"family":["New World Sparrows and Allies"],"class":["898"],"trial_type":"image-multi-choice","trial_index":122,"time_elapsed":950536,"internal_node_id":"0.0-1.0-121.0"},{"rt":15757,"responses":"{\"Q0\":\"Townsend's Warbler\"}","bird":["Townsend's Warbler"],"family":["Wood-Warblers"],"class":["881"],"trial_type":"image-multi-choice","trial_index":123,"time_elapsed":967415,"internal_node_id":"0.0-1.0-122.0"},{"rt":8699,"responses":"{\"Q0\":\"Song Sparrow\"}","bird":["Song Sparrow"],"family":["New World Sparrows and Allies"],"class":["902"],"trial_type":"image-multi-choice","trial_index":124,"time_elapsed":977146,"internal_node_id":"0.0-1.0-123.0"},{"rt":2946,"responses":"{\"Q0\":\"White-throated Sparrow\"}","bird":["White-throated Sparrow"],"family":["New World Sparrows and Allies"],"class":["764"],"trial_type":"image-multi-choice","trial_index":125,"time_elapsed":981114,"internal_node_id":"0.0-1.0-124.0"},{"rt":4209,"responses":"{\"Q0\":\"Nashville Warbler\"}","bird":["Nashville Warbler"],"family":["Wood-Warblers"],"class":["868"],"trial_type":"image-multi-choice","trial_index":126,"time_elapsed":986344,"internal_node_id":"0.0-1.0-125.0"},{"rt":4066,"responses":"{\"Q0\":\"Fox Sparrow\"}","bird":["Fox Sparrow"],"family":["New World Sparrows and Allies"],"class":["901"],"trial_type":"image-multi-choice","trial_index":127,"time_elapsed":991454,"internal_node_id":"0.0-1.0-126.0"},{"rt":3687,"responses":"{\"Q0\":\"Magnolia Warbler\"}","bird":["Magnolia Warbler"],"family":["Wood-Warblers"],"class":["758"],"trial_type":"image-multi-choice","trial_index":128,"time_elapsed":996160,"internal_node_id":"0.0-1.0-127.0"},{"rt":6088,"responses":"{\"Q0\":\"Nashville Warbler\"}","bird":["Nashville Warbler"],"family":["Wood-Warblers"],"class":["868"],"trial_type":"image-multi-choice","trial_index":129,"time_elapsed":1003261,"internal_node_id":"0.0-1.0-128.0"},{"rt":11600,"responses":"{\"Q0\":\"American Tree Sparrow\"}","bird":["Swamp Sparrow"],"family":["New World Sparrows and Allies"],"class":["904"],"trial_type":"image-multi-choice","trial_index":130,"time_elapsed":1015876,"internal_node_id":"0.0-1.0-129.0"},{"rt":2623,"responses":"{\"Q0\":\"White-throated Sparrow\"}","bird":["White-throated Sparrow"],"family":["New World Sparrows and Allies"],"class":["764"],"trial_type":"image-multi-choice","trial_index":131,"time_elapsed":1019552,"internal_node_id":"0.0-1.0-130.0"},{"rt":7262,"responses":"{\"Q0\":\"Fox Sparrow\"}","bird":["Song Sparrow"],"family":["New World Sparrows and Allies"],"class":["902"],"trial_type":"image-multi-choice","trial_index":132,"time_elapsed":1027858,"internal_node_id":"0.0-1.0-131.0"},{"rt":6674,"responses":"{\"Q0\":\"Yellow Warbler\"}","bird":["Yellow Warbler"],"family":["Wood-Warblers"],"class":["875"],"trial_type":"image-multi-choice","trial_index":133,"time_elapsed":1035553,"internal_node_id":"0.0-1.0-132.0"},{"rt":9647,"responses":"{\"Q0\":\"Townsend's Warbler\"}","bird":["Townsend's Warbler"],"family":["Wood-Warblers"],"class":["881"],"trial_type":"image-multi-choice","trial_index":134,"time_elapsed":1046250,"internal_node_id":"0.0-1.0-133.0"},{"rt":8640,"responses":"{\"Q0\":\"Fox Sparrow\"}","bird":["Fox Sparrow"],"family":["New World Sparrows and Allies"],"class":["901"],"trial_type":"image-multi-choice","trial_index":135,"time_elapsed":1055912,"internal_node_id":"0.0-1.0-134.0"},{"rt":3314,"responses":"{\"Q0\":\"White-crowned Sparrow\"}","bird":["White-crowned Sparrow"],"family":["New World Sparrows and Allies"],"class":["766"],"trial_type":"image-multi-choice","trial_index":136,"time_elapsed":1060258,"internal_node_id":"0.0-1.0-135.0"},{"rt":3152,"responses":"{\"Q0\":\"Magnolia Warbler\"}","bird":["Magnolia Warbler"],"family":["Wood-Warblers"],"class":["758"],"trial_type":"image-multi-choice","trial_index":137,"time_elapsed":1064452,"internal_node_id":"0.0-1.0-136.0"},{"rt":5164,"responses":"{\"Q0\":\"Blackburnian Warbler\"}","bird":["Blackburnian Warbler"],"family":["Wood-Warblers"],"class":["874"],"trial_type":"image-multi-choice","trial_index":138,"time_elapsed":1070649,"internal_node_id":"0.0-1.0-137.0"},{"rt":3707,"responses":"{\"Q0\":\"Magnolia Warbler\"}","bird":["Magnolia Warbler"],"family":["Wood-Warblers"],"class":["758"],"trial_type":"image-multi-choice","trial_index":139,"time_elapsed":1075398,"internal_node_id":"0.0-1.0-138.0"},{"rt":7220,"responses":"{\"Q0\":\"Chipping Sparrow\"}","bird":["Chipping Sparrow"],"family":["New World Sparrows and Allies"],"class":["769"],"trial_type":"image-multi-choice","trial_index":140,"time_elapsed":1083646,"internal_node_id":"0.0-1.0-139.0"},{"rt":9623,"responses":"{\"Q0\":\"White-crowned Sparrow\"}","bird":["American Tree Sparrow"],"family":["New World Sparrows and Allies"],"class":["894"],"trial_type":"image-multi-choice","trial_index":141,"time_elapsed":1094285,"internal_node_id":"0.0-1.0-140.0"},{"rt":10311,"responses":"{\"Q0\":\"Tennessee Warbler\"}","bird":["Orange-crowned Warbler"],"family":["Wood-Warblers"],"class":["867"],"trial_type":"image-multi-choice","trial_index":142,"time_elapsed":1105626,"internal_node_id":"0.0-1.0-141.0"},{"rt":3337,"responses":"{\"Q0\":\"Fox Sparrow\"}","bird":["Fox Sparrow"],"family":["New World Sparrows and Allies"],"class":["901"],"trial_type":"image-multi-choice","trial_index":143,"time_elapsed":1109984,"internal_node_id":"0.0-1.0-142.0"},{"rt":22164,"responses":"{\"Q0\":\"Blackburnian Warbler\"}","bird":["Yellow Warbler"],"family":["Wood-Warblers"],"class":["875"],"trial_type":"image-multi-choice","trial_index":144,"time_elapsed":1133200,"internal_node_id":"0.0-1.0-143.0"},{"rt":7221,"responses":"{\"Q0\":\"American Tree Sparrow\"}","bird":["American Tree Sparrow"],"family":["New World Sparrows and Allies"],"class":["894"],"trial_type":"image-multi-choice","trial_index":145,"time_elapsed":1141454,"internal_node_id":"0.0-1.0-144.0"},{"rt":8032,"responses":"{\"Q0\":\"Chipping Sparrow\"}","bird":["Swamp Sparrow"],"family":["New World Sparrows and Allies"],"class":["904"],"trial_type":"image-multi-choice","trial_index":146,"time_elapsed":1150518,"internal_node_id":"0.0-1.0-145.0"},{"rt":7383,"responses":"{\"Q0\":\"Lark Sparrow\"}","bird":["Lark Sparrow"],"family":["New World Sparrows and Allies"],"class":["899"],"trial_type":"image-multi-choice","trial_index":147,"time_elapsed":1158926,"internal_node_id":"0.0-1.0-146.0"},{"rt":4536,"responses":"{\"Q0\":\"Vesper Sparrow\"}","bird":["Vesper Sparrow"],"family":["New World Sparrows and Allies"],"class":["898"],"trial_type":"image-multi-choice","trial_index":148,"time_elapsed":1164509,"internal_node_id":"0.0-1.0-147.0"},{"rt":3625,"responses":"{\"Q0\":\"Fox Sparrow\"}","bird":["Fox Sparrow"],"family":["New World Sparrows and Allies"],"class":["901"],"trial_type":"image-multi-choice","trial_index":149,"time_elapsed":1169157,"internal_node_id":"0.0-1.0-148.0"},{"rt":6409,"responses":"{\"Q0\":\"Song Sparrow\"}","bird":["Song Sparrow"],"family":["New World Sparrows and Allies"],"class":["902"],"trial_type":"image-multi-choice","trial_index":150,"time_elapsed":1176600,"internal_node_id":"0.0-1.0-149.0"},{"rt":7863,"responses":"{\"Q0\":\"Townsend's Warbler\"}","bird":["Blackburnian Warbler"],"family":["Wood-Warblers"],"class":["874"],"trial_type":"image-multi-choice","trial_index":151,"time_elapsed":1185484,"internal_node_id":"0.0-1.0-150.0"},{"rt":5668,"responses":"{\"Q0\":\"Orange-crowned Warbler\"}","bird":["Orange-crowned Warbler"],"family":["Wood-Warblers"],"class":["867"],"trial_type":"image-multi-choice","trial_index":152,"time_elapsed":1192207,"internal_node_id":"0.0-1.0-151.0"},{"rt":3048,"responses":"{\"Q0\":\"Fox Sparrow\"}","bird":["Fox Sparrow"],"family":["New World Sparrows and Allies"],"class":["901"],"trial_type":"image-multi-choice","trial_index":153,"time_elapsed":1196287,"internal_node_id":"0.0-1.0-152.0"},{"rt":11667,"responses":"{\"Q0\":\"Tennessee Warbler\"}","bird":["Orange-crowned Warbler"],"family":["Wood-Warblers"],"class":["867"],"trial_type":"image-multi-choice","trial_index":154,"time_elapsed":1208986,"internal_node_id":"0.0-1.0-153.0"},{"rt":4577,"responses":"{\"Q0\":\"Townsend's Warbler\"}","bird":["Townsend's Warbler"],"family":["Wood-Warblers"],"class":["881"],"trial_type":"image-multi-choice","trial_index":155,"time_elapsed":1214591,"internal_node_id":"0.0-1.0-154.0"},{"rt":2530,"responses":"{\"Q0\":\"Ovenbird\"}","bird":["Ovenbird"],"family":["Wood-Warblers"],"class":["860"],"trial_type":"image-multi-choice","trial_index":156,"time_elapsed":1218148,"internal_node_id":"0.0-1.0-155.0"},{"rt":4058,"responses":"{\"Q0\":\"Nashville Warbler\"}","bird":["Nashville Warbler"],"family":["Wood-Warblers"],"class":["868"],"trial_type":"image-multi-choice","trial_index":157,"time_elapsed":1223246,"internal_node_id":"0.0-1.0-156.0"},{"rt":4471,"responses":"{\"Q0\":\"Song Sparrow\"}","bird":["Song Sparrow"],"family":["New World Sparrows and Allies"],"class":["902"],"trial_type":"image-multi-choice","trial_index":158,"time_elapsed":1228750,"internal_node_id":"0.0-1.0-157.0"},{"rt":2097,"responses":"{\"Q0\":\"Yellow Warbler\"}","bird":["Yellow Warbler"],"family":["Wood-Warblers"],"class":["875"],"trial_type":"image-multi-choice","trial_index":159,"time_elapsed":1231864,"internal_node_id":"0.0-1.0-158.0"},{"rt":2797,"responses":"{\"Q0\":\"Fox Sparrow\"}","bird":["Fox Sparrow"],"family":["New World Sparrows and Allies"],"class":["901"],"trial_type":"image-multi-choice","trial_index":160,"time_elapsed":1235694,"internal_node_id":"0.0-1.0-159.0"},{"rt":3780,"responses":"{\"Q0\":\"Black-and-white Warbler\"}","bird":["Black-and-white Warbler"],"family":["Wood-Warblers"],"class":["864"],"trial_type":"image-multi-choice","trial_index":161,"time_elapsed":1240518,"internal_node_id":"0.0-1.0-160.0"},{"rt":7312,"responses":"{\"Q0\":\"Tennessee Warbler\"}","bird":["Orange-crowned Warbler"],"family":["Wood-Warblers"],"class":["867"],"trial_type":"image-multi-choice","trial_index":162,"time_elapsed":1248877,"internal_node_id":"0.0-1.0-161.0"},{"rt":6292,"responses":"{\"Q0\":\"Swamp Sparrow\"}","bird":["American Tree Sparrow"],"family":["New World Sparrows and Allies"],"class":["894"],"trial_type":"image-multi-choice","trial_index":163,"time_elapsed":1256214,"internal_node_id":"0.0-1.0-162.0"},{"rt":6092,"responses":"{\"Q0\":\"Townsend's Warbler\"}","bird":["Townsend's Warbler"],"family":["Wood-Warblers"],"class":["881"],"trial_type":"image-multi-choice","trial_index":164,"time_elapsed":1263328,"internal_node_id":"0.0-1.0-163.0"},{"rt":4152,"responses":"{\"Q0\":\"Song Sparrow\"}","bird":["Song Sparrow"],"family":["New World Sparrows and Allies"],"class":["902"],"trial_type":"image-multi-choice","trial_index":165,"time_elapsed":1268518,"internal_node_id":"0.0-1.0-164.0"},{"rt":4701,"responses":"{\"Q0\":\"Tennessee Warbler\"}","bird":["Nashville Warbler"],"family":["Wood-Warblers"],"class":["868"],"trial_type":"image-multi-choice","trial_index":166,"time_elapsed":1274253,"internal_node_id":"0.0-1.0-165.0"},{"rt":6113,"responses":"{\"Q0\":\"Tennessee Warbler\"}","bird":["Tennessee Warbler"],"family":["Wood-Warblers"],"class":["866"],"trial_type":"image-multi-choice","trial_index":167,"time_elapsed":1281384,"internal_node_id":"0.0-1.0-166.0"},{"rt":6049,"responses":"{\"Q0\":\"Chipping Sparrow\"}","bird":["Chipping Sparrow"],"family":["New World Sparrows and Allies"],"class":["769"],"trial_type":"image-multi-choice","trial_index":168,"time_elapsed":1288469,"internal_node_id":"0.0-1.0-167.0"},{"rt":2486,"responses":"{\"Q0\":\"Ovenbird\"}","bird":["Ovenbird"],"family":["Wood-Warblers"],"class":["860"],"trial_type":"image-multi-choice","trial_index":169,"time_elapsed":1291982,"internal_node_id":"0.0-1.0-168.0"},{"rt":2675,"responses":"{\"Q0\":\"White-throated Sparrow\"}","bird":["White-throated Sparrow"],"family":["New World Sparrows and Allies"],"class":["764"],"trial_type":"image-multi-choice","trial_index":170,"time_elapsed":1295693,"internal_node_id":"0.0-1.0-169.0"},{"rt":3019,"responses":"{\"Q0\":\"Fox Sparrow\"}","bird":["Fox Sparrow"],"family":["New World Sparrows and Allies"],"class":["901"],"trial_type":"image-multi-choice","trial_index":171,"time_elapsed":1299733,"internal_node_id":"0.0-1.0-170.0"},{"rt":12086,"responses":"{\"Q0\":\"Blackburnian Warbler\"}","bird":["Blackburnian Warbler"],"family":["Wood-Warblers"],"class":["874"],"trial_type":"image-multi-choice","trial_index":172,"time_elapsed":1312829,"internal_node_id":"0.0-1.0-171.0"},{"rt":5254,"responses":"{\"Q0\":\"American Tree Sparrow\"}","bird":["American Tree Sparrow"],"family":["New World Sparrows and Allies"],"class":["894"],"trial_type":"image-multi-choice","trial_index":173,"time_elapsed":1319094,"internal_node_id":"0.0-1.0-172.0"},{"rt":4255,"responses":"{\"Q0\":\"Lincoln's Sparrow\"}","bird":["Swamp Sparrow"],"family":["New World Sparrows and Allies"],"class":["904"],"trial_type":"image-multi-choice","trial_index":174,"time_elapsed":1324391,"internal_node_id":"0.0-1.0-173.0"},{"rt":4118,"responses":"{\"Q0\":\"Townsend's Warbler\"}","bird":["Townsend's Warbler"],"family":["Wood-Warblers"],"class":["881"],"trial_type":"image-multi-choice","trial_index":175,"time_elapsed":1329531,"internal_node_id":"0.0-1.0-174.0"},{"rt":5474,"responses":"{\"Q0\":\"Orange-crowned Warbler\"}","bird":["Tennessee Warbler"],"family":["Wood-Warblers"],"class":["866"],"trial_type":"image-multi-choice","trial_index":176,"time_elapsed":1336047,"internal_node_id":"0.0-1.0-175.0"},{"rt":2564,"responses":"{\"Q0\":\"Northern Waterthrush\"}","bird":["Northern Waterthrush"],"family":["Wood-Warblers"],"class":["862"],"trial_type":"image-multi-choice","trial_index":177,"time_elapsed":1339630,"internal_node_id":"0.0-1.0-176.0"},{"rt":5934,"responses":"{\"Q0\":\"Swamp Sparrow\"}","bird":["Swamp Sparrow"],"family":["New World Sparrows and Allies"],"class":["904"],"trial_type":"image-multi-choice","trial_index":178,"time_elapsed":1346596,"internal_node_id":"0.0-1.0-177.0"},{"rt":3775,"responses":"{\"Q0\":\"Fox Sparrow\"}","bird":["Fox Sparrow"],"family":["New World Sparrows and Allies"],"class":["901"],"trial_type":"image-multi-choice","trial_index":179,"time_elapsed":1351414,"internal_node_id":"0.0-1.0-178.0"},{"rt":6322,"responses":"{\"Q0\":\"American Tree Sparrow\"}","bird":["American Tree Sparrow"],"family":["New World Sparrows and Allies"],"class":["894"],"trial_type":"image-multi-choice","trial_index":180,"time_elapsed":1368124,"internal_node_id":"0.0-1.0-179.0"},{"rt":3927,"responses":"{\"Q0\":\"Fox Sparrow\"}","bird":["Fox Sparrow"],"family":["New World Sparrows and Allies"],"class":["901"],"trial_type":"image-multi-choice","trial_index":181,"time_elapsed":1373096,"internal_node_id":"0.0-1.0-180.0"},{"rt":3959,"responses":"{\"Q0\":\"Vesper Sparrow\"}","bird":["Vesper Sparrow"],"family":["New World Sparrows and Allies"],"class":["898"],"trial_type":"image-multi-choice","trial_index":182,"time_elapsed":1378070,"internal_node_id":"0.0-1.0-181.0"},{"rt":37312,"responses":"{\"Q0\":\"Song Sparrow\"}","bird":["Song Sparrow"],"family":["New World Sparrows and Allies"],"class":["902"],"trial_type":"image-multi-choice","trial_index":183,"time_elapsed":1416437,"internal_node_id":"0.0-1.0-182.0"},{"rt":7957,"responses":"{\"Q0\":\"Magnolia Warbler\"}","bird":["Blackburnian Warbler"],"family":["Wood-Warblers"],"class":["874"],"trial_type":"image-multi-choice","trial_index":184,"time_elapsed":1425423,"internal_node_id":"0.0-1.0-183.0"},{"rt":11145,"responses":"{\"Q0\":\"White-crowned Sparrow\"}","bird":["White-crowned Sparrow"],"family":["New World Sparrows and Allies"],"class":["766"],"trial_type":"image-multi-choice","trial_index":185,"time_elapsed":1437582,"internal_node_id":"0.0-1.0-184.0"},{"rt":6272,"responses":"{\"Q0\":\"American Tree Sparrow\"}","bird":["American Tree Sparrow"],"family":["New World Sparrows and Allies"],"class":["894"],"trial_type":"image-multi-choice","trial_index":186,"time_elapsed":1444886,"internal_node_id":"0.0-1.0-185.0"},{"rt":3279,"responses":"{\"Q0\":\"Black-and-white Warbler\"}","bird":["Black-and-white Warbler"],"family":["Wood-Warblers"],"class":["864"],"trial_type":"image-multi-choice","trial_index":187,"time_elapsed":1449189,"internal_node_id":"0.0-1.0-186.0"},{"rt":2288,"responses":"{\"Q0\":\"Lark Sparrow\"}","bird":["Lark Sparrow"],"family":["New World Sparrows and Allies"],"class":["899"],"trial_type":"image-multi-choice","trial_index":188,"time_elapsed":1452492,"internal_node_id":"0.0-1.0-187.0"},{"rt":5068,"responses":"{\"Q0\":\"Nashville Warbler\"}","bird":["Nashville Warbler"],"family":["Wood-Warblers"],"class":["868"],"trial_type":"image-multi-choice","trial_index":189,"time_elapsed":1458589,"internal_node_id":"0.0-1.0-188.0"},{"rt":2092,"responses":"{\"Q0\":\"Northern Waterthrush\"}","bird":["Northern Waterthrush"],"family":["Wood-Warblers"],"class":["862"],"trial_type":"image-multi-choice","trial_index":190,"time_elapsed":1461706,"internal_node_id":"0.0-1.0-189.0"},{"rt":7991,"responses":"{\"Q0\":\"Orange-crowned Warbler\"}","bird":["Tennessee Warbler"],"family":["Wood-Warblers"],"class":["866"],"trial_type":"image-multi-choice","trial_index":191,"time_elapsed":1470717,"internal_node_id":"0.0-1.0-190.0"},{"rt":4337,"responses":"{\"Q0\":\"Nashville Warbler\"}","bird":["Nashville Warbler"],"family":["Wood-Warblers"],"class":["868"],"trial_type":"image-multi-choice","trial_index":192,"time_elapsed":1476087,"internal_node_id":"0.0-1.0-191.0"},{"rt":2342,"responses":"{\"Q0\":\"Fox Sparrow\"}","bird":["Fox Sparrow"],"family":["New World Sparrows and Allies"],"class":["901"],"trial_type":"image-multi-choice","trial_index":193,"time_elapsed":1479485,"internal_node_id":"0.0-1.0-192.0"},{"rt":7192,"responses":"{\"Q0\":\"Townsend's Warbler\"}","bird":["Blackburnian Warbler"],"family":["Wood-Warblers"],"class":["874"],"trial_type":"image-multi-choice","trial_index":194,"time_elapsed":1487692,"internal_node_id":"0.0-1.0-193.0"},{"rt":5863,"responses":"{\"Q0\":\"Swamp Sparrow\"}","bird":["Swamp Sparrow"],"family":["New World Sparrows and Allies"],"class":["904"],"trial_type":"image-multi-choice","trial_index":195,"time_elapsed":1494614,"internal_node_id":"0.0-1.0-194.0"},{"rt":6768,"responses":"{\"Q0\":\"Townsend's Warbler\"}","bird":["Townsend's Warbler"],"family":["Wood-Warblers"],"class":["881"],"trial_type":"image-multi-choice","trial_index":196,"time_elapsed":1502421,"internal_node_id":"0.0-1.0-195.0"},{"rt":4187,"responses":"{\"Q0\":\"Tennessee Warbler\"}","bird":["Tennessee Warbler"],"family":["Wood-Warblers"],"class":["866"],"trial_type":"image-multi-choice","trial_index":197,"time_elapsed":1507639,"internal_node_id":"0.0-1.0-196.0"},{"rt":3094,"responses":"{\"Q0\":\"White-crowned Sparrow\"}","bird":["White-crowned Sparrow"],"family":["New World Sparrows and Allies"],"class":["766"],"trial_type":"image-multi-choice","trial_index":198,"time_elapsed":1511748,"internal_node_id":"0.0-1.0-197.0"},{"rt":2301,"responses":"{\"Q0\":\"Ovenbird\"}","bird":["Ovenbird"],"family":["Wood-Warblers"],"class":["860"],"trial_type":"image-multi-choice","trial_index":199,"time_elapsed":1515076,"internal_node_id":"0.0-1.0-198.0"},{"rt":3792,"responses":"{\"Q0\":\"Vesper Sparrow\"}","bird":["Vesper Sparrow"],"family":["New World Sparrows and Allies"],"class":["898"],"trial_type":"image-multi-choice","trial_index":200,"time_elapsed":1519893,"internal_node_id":"0.0-1.0-199.0"},{"rt":5662,"responses":"{\"Q0\":\"Blackburnian Warbler\"}","bird":["Blackburnian Warbler"],"family":["Wood-Warblers"],"class":["874"],"trial_type":"image-multi-choice","trial_index":201,"time_elapsed":1526593,"internal_node_id":"0.0-1.0-200.0"},{"rt":3652,"responses":"{\"Q0\":\"Chipping Sparrow\"}","bird":["Chipping Sparrow"],"family":["New World Sparrows and Allies"],"class":["769"],"trial_type":"image-multi-choice","trial_index":202,"time_elapsed":1531294,"internal_node_id":"0.0-1.0-201.0"},{"rt":3404,"responses":"{\"Q0\":\"Fox Sparrow\"}","bird":["Vesper Sparrow"],"family":["New World Sparrows and Allies"],"class":["898"],"trial_type":"image-multi-choice","trial_index":203,"time_elapsed":1535721,"internal_node_id":"0.0-1.0-202.0"},{"rt":10578,"responses":"{\"Q0\":\"Northern Waterthrush\"}","bird":["Yellow Warbler"],"family":["Wood-Warblers"],"class":["875"],"trial_type":"image-multi-choice","trial_index":204,"time_elapsed":1547354,"internal_node_id":"0.0-1.0-203.0"},{"rt":3957,"responses":"{\"Q0\":\"Nashville Warbler\"}","bird":["Orange-crowned Warbler"],"family":["Wood-Warblers"],"class":["867"],"trial_type":"image-multi-choice","trial_index":205,"time_elapsed":1552333,"internal_node_id":"0.0-1.0-204.0"},{"rt":2515,"responses":"{\"Q0\":\"White-throated Sparrow\"}","bird":["White-throated Sparrow"],"family":["New World Sparrows and Allies"],"class":["764"],"trial_type":"image-multi-choice","trial_index":206,"time_elapsed":1555862,"internal_node_id":"0.0-1.0-205.0"},{"rt":2989,"responses":"{\"Q0\":\"American Tree Sparrow\"}","bird":["American Tree Sparrow"],"family":["New World Sparrows and Allies"],"class":["894"],"trial_type":"image-multi-choice","trial_index":207,"time_elapsed":1559875,"internal_node_id":"0.0-1.0-206.0"},{"rt":6855,"responses":"{\"Q0\":\"Tennessee Warbler\"}","bird":["Orange-crowned Warbler"],"family":["Wood-Warblers"],"class":["867"],"trial_type":"image-multi-choice","trial_index":208,"time_elapsed":1567761,"internal_node_id":"0.0-1.0-207.0"},{"rt":3312,"responses":"{\"Q0\":\"Black-and-white Warbler\"}","bird":["Black-and-white Warbler"],"family":["Wood-Warblers"],"class":["864"],"trial_type":"image-multi-choice","trial_index":209,"time_elapsed":1572095,"internal_node_id":"0.0-1.0-208.0"},{"rt":2406,"responses":"{\"Q0\":\"Lark Sparrow\"}","bird":["Lark Sparrow"],"family":["New World Sparrows and Allies"],"class":["899"],"trial_type":"image-multi-choice","trial_index":210,"time_elapsed":1575532,"internal_node_id":"0.0-1.0-209.0"},{"rt":5983,"responses":"{\"Q0\":\"Chipping Sparrow\"}","bird":["Chipping Sparrow"],"family":["New World Sparrows and Allies"],"class":["769"],"trial_type":"image-multi-choice","trial_index":211,"time_elapsed":1582561,"internal_node_id":"0.0-1.0-210.0"},{"rt":3440,"responses":"{\"Q0\":\"Orange-crowned Warbler\"}","bird":["Orange-crowned Warbler"],"family":["Wood-Warblers"],"class":["867"],"trial_type":"image-multi-choice","trial_index":212,"time_elapsed":1587012,"internal_node_id":"0.0-1.0-211.0"},{"rt":2235,"responses":"{\"Q0\":\"Yellow Warbler\"}","bird":["Yellow Warbler"],"family":["Wood-Warblers"],"class":["875"],"trial_type":"image-multi-choice","trial_index":213,"time_elapsed":1590287,"internal_node_id":"0.0-1.0-212.0"},{"rt":5844,"responses":"{\"Q0\":\"American Tree Sparrow\"}","bird":["American Tree Sparrow"],"family":["New World Sparrows and Allies"],"class":["894"],"trial_type":"image-multi-choice","trial_index":214,"time_elapsed":1597157,"internal_node_id":"0.0-1.0-213.0"},{"rt":6876,"responses":"{\"Q0\":\"Vesper Sparrow\"}","bird":["Vesper Sparrow"],"family":["New World Sparrows and Allies"],"class":["898"],"trial_type":"image-multi-choice","trial_index":215,"time_elapsed":1605057,"internal_node_id":"0.0-1.0-214.0"},{"rt":7126,"responses":"{\"Q0\":\"Ovenbird\"}","bird":["Ovenbird"],"family":["Wood-Warblers"],"class":["860"],"trial_type":"image-multi-choice","trial_index":216,"time_elapsed":1613205,"internal_node_id":"0.0-1.0-215.0"},{"rt":3849,"responses":"{\"Q0\":\"Lark Sparrow\"}","bird":["Lark Sparrow"],"family":["New World Sparrows and Allies"],"class":["899"],"trial_type":"image-multi-choice","trial_index":217,"time_elapsed":1618094,"internal_node_id":"0.0-1.0-216.0"},{"rt":4406,"responses":"{\"Q0\":\"Lincoln's Sparrow\"}","bird":["Lincoln's Sparrow"],"family":["New World Sparrows and Allies"],"class":["903"],"trial_type":"image-multi-choice","trial_index":218,"time_elapsed":1623569,"internal_node_id":"0.0-1.0-217.0"},{"rt":6366,"responses":"{\"Q0\":\"Chipping Sparrow\"}","bird":["Chipping Sparrow"],"family":["New World Sparrows and Allies"],"class":["769"],"trial_type":"image-multi-choice","trial_index":219,"time_elapsed":1630974,"internal_node_id":"0.0-1.0-218.0"},{"rt":3549,"responses":"{\"Q0\":\"Lincoln's Sparrow\"}","bird":["Lincoln's Sparrow"],"family":["New World Sparrows and Allies"],"class":["903"],"trial_type":"image-multi-choice","trial_index":220,"time_elapsed":1635573,"internal_node_id":"0.0-1.0-219.0"},{"rt":11389,"responses":"{\"Q0\":\"Northern Waterthrush\"}","bird":["Northern Waterthrush"],"family":["Wood-Warblers"],"class":["862"],"trial_type":"image-multi-choice","trial_index":221,"time_elapsed":1647990,"internal_node_id":"0.0-1.0-220.0"},{"rt":6259,"responses":"{\"Q0\":\"Chipping Sparrow\"}","bird":["Chipping Sparrow"],"family":["New World Sparrows and Allies"],"class":["769"],"trial_type":"image-multi-choice","trial_index":222,"time_elapsed":1655268,"internal_node_id":"0.0-1.0-221.0"},{"rt":5622,"responses":"{\"Q0\":\"Vesper Sparrow\"}","bird":["Lincoln's Sparrow"],"family":["New World Sparrows and Allies"],"class":["903"],"trial_type":"image-multi-choice","trial_index":223,"time_elapsed":1661920,"internal_node_id":"0.0-1.0-222.0"},{"rt":5897,"responses":"{\"Q0\":\"Blackburnian Warbler\"}","bird":["Blackburnian Warbler"],"family":["Wood-Warblers"],"class":["874"],"trial_type":"image-multi-choice","trial_index":224,"time_elapsed":1668839,"internal_node_id":"0.0-1.0-223.0"},{"rt":6741,"responses":"{\"Q0\":\"Swamp Sparrow\"}","bird":["Swamp Sparrow"],"family":["New World Sparrows and Allies"],"class":["904"],"trial_type":"image-multi-choice","trial_index":225,"time_elapsed":1676594,"internal_node_id":"0.0-1.0-224.0"},{"rt":3028,"responses":"{\"Q0\":\"American Tree Sparrow\"}","bird":["American Tree Sparrow"],"family":["New World Sparrows and Allies"],"class":["894"],"trial_type":"image-multi-choice","trial_index":226,"time_elapsed":1680653,"internal_node_id":"0.0-1.0-225.0"},{"rt":2568,"responses":"{\"Q0\":\"Fox Sparrow\"}","bird":["Fox Sparrow"],"family":["New World Sparrows and Allies"],"class":["901"],"trial_type":"image-multi-choice","trial_index":227,"time_elapsed":1684274,"internal_node_id":"0.0-1.0-226.0"},{"rt":5285,"responses":"{\"Q0\":\"Northern Waterthrush\"}","bird":["Northern Waterthrush"],"family":["Wood-Warblers"],"class":["862"],"trial_type":"image-multi-choice","trial_index":228,"time_elapsed":1690582,"internal_node_id":"0.0-1.0-227.0"},{"rt":2488,"responses":"{\"Q0\":\"Nashville Warbler\"}","bird":["Nashville Warbler"],"family":["Wood-Warblers"],"class":["868"],"trial_type":"image-multi-choice","trial_index":229,"time_elapsed":1694092,"internal_node_id":"0.0-1.0-228.0"},{"rt":2654,"responses":"{\"Q0\":\"Black-and-white Warbler\"}","bird":["Black-and-white Warbler"],"family":["Wood-Warblers"],"class":["864"],"trial_type":"image-multi-choice","trial_index":230,"time_elapsed":1697774,"internal_node_id":"0.0-1.0-229.0"},{"rt":4552,"responses":"{\"Q0\":\"Orange-crowned Warbler\"}","bird":["Tennessee Warbler"],"family":["Wood-Warblers"],"class":["866"],"trial_type":"image-multi-choice","trial_index":231,"time_elapsed":1703347,"internal_node_id":"0.0-1.0-230.0"},{"rt":2978,"responses":"{\"Q0\":\"Townsend's Warbler\"}","bird":["Townsend's Warbler"],"family":["Wood-Warblers"],"class":["881"],"trial_type":"image-multi-choice","trial_index":232,"time_elapsed":1707365,"internal_node_id":"0.0-1.0-231.0"},{"rt":2449,"responses":"{\"Q0\":\"Magnolia Warbler\"}","bird":["Magnolia Warbler"],"family":["Wood-Warblers"],"class":["758"],"trial_type":"image-multi-choice","trial_index":233,"time_elapsed":1710844,"internal_node_id":"0.0-1.0-232.0"},{"rt":2331,"responses":"{\"Q0\":\"Northern Waterthrush\"}","bird":["Northern Waterthrush"],"family":["Wood-Warblers"],"class":["862"],"trial_type":"image-multi-choice","trial_index":234,"time_elapsed":1714188,"internal_node_id":"0.0-1.0-233.0"},{"rt":3868,"responses":"{\"Q0\":\"Orange-crowned Warbler\"}","bird":["Orange-crowned Warbler"],"family":["Wood-Warblers"],"class":["867"],"trial_type":"image-multi-choice","trial_index":235,"time_elapsed":1719078,"internal_node_id":"0.0-1.0-234.0"},{"rt":2338,"responses":"{\"Q0\":\"White-throated Sparrow\"}","bird":["White-throated Sparrow"],"family":["New World Sparrows and Allies"],"class":["764"],"trial_type":"image-multi-choice","trial_index":236,"time_elapsed":1722438,"internal_node_id":"0.0-1.0-235.0"},{"rt":2807,"responses":"{\"Q0\":\"Yellow Warbler\"}","bird":["Yellow Warbler"],"family":["Wood-Warblers"],"class":["875"],"trial_type":"image-multi-choice","trial_index":237,"time_elapsed":1726277,"internal_node_id":"0.0-1.0-236.0"},{"rt":2122,"responses":"{\"Q0\":\"Fox Sparrow\"}","bird":["Fox Sparrow"],"family":["New World Sparrows and Allies"],"class":["901"],"trial_type":"image-multi-choice","trial_index":238,"time_elapsed":1729430,"internal_node_id":"0.0-1.0-237.0"},{"rt":9410,"responses":"{\"Q0\":\"Swamp Sparrow\"}","bird":["Swamp Sparrow"],"family":["New World Sparrows and Allies"],"class":["904"],"trial_type":"image-multi-choice","trial_index":239,"time_elapsed":1739854,"internal_node_id":"0.0-1.0-238.0"},{"rt":3859,"responses":"{\"Q0\":\"Fox Sparrow\"}","bird":["Fox Sparrow"],"family":["New World Sparrows and Allies"],"class":["901"],"trial_type":"image-multi-choice","trial_index":240,"time_elapsed":1752810,"internal_node_id":"0.0-1.0-239.0"},{"rt":5108,"responses":"{\"Q0\":\"Tennessee Warbler\"}","bird":["Orange-crowned Warbler"],"family":["Wood-Warblers"],"class":["867"],"trial_type":"image-multi-choice","trial_index":241,"time_elapsed":1758961,"internal_node_id":"0.0-1.0-240.0"},{"rt":2267,"responses":"{\"Q0\":\"White-crowned Sparrow\"}","bird":["White-crowned Sparrow"],"family":["New World Sparrows and Allies"],"class":["766"],"trial_type":"image-multi-choice","trial_index":242,"time_elapsed":1762303,"internal_node_id":"0.0-1.0-241.0"},{"rt":6220,"responses":"{\"Q0\":\"White-crowned Sparrow\"}","bird":["White-throated Sparrow"],"family":["New World Sparrows and Allies"],"class":["764"],"trial_type":"image-multi-choice","trial_index":243,"time_elapsed":1769565,"internal_node_id":"0.0-1.0-242.0"},{"rt":3696,"responses":"{\"Q0\":\"Fox Sparrow\"}","bird":["Song Sparrow"],"family":["New World Sparrows and Allies"],"class":["902"],"trial_type":"image-multi-choice","trial_index":244,"time_elapsed":1774277,"internal_node_id":"0.0-1.0-243.0"},{"rt":2177,"responses":"{\"Q0\":\"Lark Sparrow\"}","bird":["Lark Sparrow"],"family":["New World Sparrows and Allies"],"class":["899"],"trial_type":"image-multi-choice","trial_index":245,"time_elapsed":1777470,"internal_node_id":"0.0-1.0-244.0"},{"rt":4296,"responses":"{\"Q0\":\"Lark Sparrow\"}","bird":["Vesper Sparrow"],"family":["New World Sparrows and Allies"],"class":["898"],"trial_type":"image-multi-choice","trial_index":246,"time_elapsed":1782780,"internal_node_id":"0.0-1.0-245.0"},{"rt":1784,"responses":"{\"Q0\":\"Lark Sparrow\"}","bird":["Lark Sparrow"],"family":["New World Sparrows and Allies"],"class":["899"],"trial_type":"image-multi-choice","trial_index":247,"time_elapsed":1785598,"internal_node_id":"0.0-1.0-246.0"},{"rt":3451,"responses":"{\"Q0\":\"American Tree Sparrow\"}","bird":["American Tree Sparrow"],"family":["New World Sparrows and Allies"],"class":["894"],"trial_type":"image-multi-choice","trial_index":248,"time_elapsed":1790084,"internal_node_id":"0.0-1.0-247.0"},{"rt":3222,"responses":"{\"Q0\":\"Black-and-white Warbler\"}","bird":["Black-and-white Warbler"],"family":["Wood-Warblers"],"class":["864"],"trial_type":"image-multi-choice","trial_index":249,"time_elapsed":1794324,"internal_node_id":"0.0-1.0-248.0"},{"rt":2466,"responses":"{\"Q0\":\"Lark Sparrow\"}","bird":["Lark Sparrow"],"family":["New World Sparrows and Allies"],"class":["899"],"trial_type":"image-multi-choice","trial_index":250,"time_elapsed":1797803,"internal_node_id":"0.0-1.0-249.0"},{"rt":3517,"responses":"{\"Q0\":\"Orange-crowned Warbler\"}","bird":["Orange-crowned Warbler"],"family":["Wood-Warblers"],"class":["867"],"trial_type":"image-multi-choice","trial_index":251,"time_elapsed":1802342,"internal_node_id":"0.0-1.0-250.0"},{"rt":4274,"responses":"{\"Q0\":\"Blackburnian Warbler\"}","bird":["Blackburnian Warbler"],"family":["Wood-Warblers"],"class":["874"],"trial_type":"image-multi-choice","trial_index":252,"time_elapsed":1807636,"internal_node_id":"0.0-1.0-251.0"},{"rt":6925,"responses":"{\"Q0\":\"Vesper Sparrow\"}","bird":["Vesper Sparrow"],"family":["New World Sparrows and Allies"],"class":["898"],"trial_type":"image-multi-choice","trial_index":253,"time_elapsed":1815585,"internal_node_id":"0.0-1.0-252.0"},{"rt":5063,"responses":"{\"Q0\":\"Townsend's Warbler\"}","bird":["Townsend's Warbler"],"family":["Wood-Warblers"],"class":["881"],"trial_type":"image-multi-choice","trial_index":254,"time_elapsed":1821686,"internal_node_id":"0.0-1.0-253.0"},{"rt":6485,"responses":"{\"Q0\":\"Chipping Sparrow\"}","bird":["Swamp Sparrow"],"family":["New World Sparrows and Allies"],"class":["904"],"trial_type":"image-multi-choice","trial_index":255,"time_elapsed":1829192,"internal_node_id":"0.0-1.0-254.0"},{"rt":5300,"responses":"{\"Q0\":\"Song Sparrow\"}","bird":["Song Sparrow"],"family":["New World Sparrows and Allies"],"class":["902"],"trial_type":"image-multi-choice","trial_index":256,"time_elapsed":1835528,"internal_node_id":"0.0-1.0-255.0"},{"rt":10171,"responses":"{\"Q0\":\"Swamp Sparrow\"}","bird":["Swamp Sparrow"],"family":["New World Sparrows and Allies"],"class":["904"],"trial_type":"image-multi-choice","trial_index":257,"time_elapsed":1846720,"internal_node_id":"0.0-1.0-256.0"},{"rt":3039,"responses":"{\"Q0\":\"Ovenbird\"}","bird":["Ovenbird"],"family":["Wood-Warblers"],"class":["860"],"trial_type":"image-multi-choice","trial_index":258,"time_elapsed":1850781,"internal_node_id":"0.0-1.0-257.0"},{"rt":4195,"responses":"{\"Q0\":\"Black-and-white Warbler\"}","bird":["Black-and-white Warbler"],"family":["Wood-Warblers"],"class":["864"],"trial_type":"image-multi-choice","trial_index":259,"time_elapsed":1856020,"internal_node_id":"0.0-1.0-258.0"},{"rt":4080,"responses":"{\"Q0\":\"American Tree Sparrow\"}","bird":["American Tree Sparrow"],"family":["New World Sparrows and Allies"],"class":["894"],"trial_type":"image-multi-choice","trial_index":260,"time_elapsed":1861134,"internal_node_id":"0.0-1.0-259.0"},{"rt":3232,"responses":"{\"Q0\":\"Yellow Warbler\"}","bird":["Yellow Warbler"],"family":["Wood-Warblers"],"class":["875"],"trial_type":"image-multi-choice","trial_index":261,"time_elapsed":1865396,"internal_node_id":"0.0-1.0-260.0"},{"rt":7668,"responses":"{\"Q0\":\"Swamp Sparrow\"}","bird":["Vesper Sparrow"],"family":["New World Sparrows and Allies"],"class":["898"],"trial_type":"image-multi-choice","trial_index":262,"time_elapsed":1874084,"internal_node_id":"0.0-1.0-261.0"},{"rt":3702,"responses":"{\"Q0\":\"Chipping Sparrow\"}","bird":["Chipping Sparrow"],"family":["New World Sparrows and Allies"],"class":["769"],"trial_type":"image-multi-choice","trial_index":263,"time_elapsed":1878804,"internal_node_id":"0.0-1.0-262.0"},{"rt":2834,"responses":"{\"Q0\":\"Northern Waterthrush\"}","bird":["Northern Waterthrush"],"family":["Wood-Warblers"],"class":["862"],"trial_type":"image-multi-choice","trial_index":264,"time_elapsed":1882660,"internal_node_id":"0.0-1.0-263.0"},{"rt":5866,"responses":"{\"Q0\":\"Song Sparrow\"}","bird":["Song Sparrow"],"family":["New World Sparrows and Allies"],"class":["902"],"trial_type":"image-multi-choice","trial_index":265,"time_elapsed":1889537,"internal_node_id":"0.0-1.0-264.0"},{"rt":2889,"responses":"{\"Q0\":\"Nashville Warbler\"}","bird":["Nashville Warbler"],"family":["Wood-Warblers"],"class":["868"],"trial_type":"image-multi-choice","trial_index":266,"time_elapsed":1893482,"internal_node_id":"0.0-1.0-265.0"},{"rt":2538,"responses":"{\"Q0\":\"White-throated Sparrow\"}","bird":["White-throated Sparrow"],"family":["New World Sparrows and Allies"],"class":["764"],"trial_type":"image-multi-choice","trial_index":267,"time_elapsed":1897041,"internal_node_id":"0.0-1.0-266.0"},{"rt":2294,"responses":"{\"Q0\":\"White-crowned Sparrow\"}","bird":["White-crowned Sparrow"],"family":["New World Sparrows and Allies"],"class":["766"],"trial_type":"image-multi-choice","trial_index":268,"time_elapsed":1900373,"internal_node_id":"0.0-1.0-267.0"},{"rt":4367,"responses":"{\"Q0\":\"American Tree Sparrow\"}","bird":["American Tree Sparrow"],"family":["New World Sparrows and Allies"],"class":["894"],"trial_type":"image-multi-choice","trial_index":269,"time_elapsed":1905774,"internal_node_id":"0.0-1.0-268.0"},{"rt":2807,"responses":"{\"Q0\":\"White-throated Sparrow\"}","bird":["White-throated Sparrow"],"family":["New World Sparrows and Allies"],"class":["764"],"trial_type":"image-multi-choice","trial_index":270,"time_elapsed":1909605,"internal_node_id":"0.0-1.0-269.0"},{"rt":2466,"responses":"{\"Q0\":\"White-crowned Sparrow\"}","bird":["White-crowned Sparrow"],"family":["New World Sparrows and Allies"],"class":["766"],"trial_type":"image-multi-choice","trial_index":271,"time_elapsed":1913100,"internal_node_id":"0.0-1.0-270.0"},{"rt":2427,"responses":"{\"Q0\":\"Yellow Warbler\"}","bird":["Yellow Warbler"],"family":["Wood-Warblers"],"class":["875"],"trial_type":"image-multi-choice","trial_index":272,"time_elapsed":1916566,"internal_node_id":"0.0-1.0-271.0"},{"rt":3208,"responses":"{\"Q0\":\"Chipping Sparrow\"}","bird":["Chipping Sparrow"],"family":["New World Sparrows and Allies"],"class":["769"],"trial_type":"image-multi-choice","trial_index":273,"time_elapsed":1920795,"internal_node_id":"0.0-1.0-272.0"},{"rt":4784,"responses":"{\"Q0\":\"Ovenbird\"}","bird":["Ovenbird"],"family":["Wood-Warblers"],"class":["860"],"trial_type":"image-multi-choice","trial_index":274,"time_elapsed":1926596,"internal_node_id":"0.0-1.0-273.0"},{"rt":3633,"responses":"{\"Q0\":\"Northern Waterthrush\"}","bird":["Northern Waterthrush"],"family":["Wood-Warblers"],"class":["862"],"trial_type":"image-multi-choice","trial_index":275,"time_elapsed":1931243,"internal_node_id":"0.0-1.0-274.0"},{"rt":2927,"responses":"{\"Q0\":\"Ovenbird\"}","bird":["Ovenbird"],"family":["Wood-Warblers"],"class":["860"],"trial_type":"image-multi-choice","trial_index":276,"time_elapsed":1935222,"internal_node_id":"0.0-1.0-275.0"},{"rt":7565,"responses":"{\"Q0\":\"Black-and-white Warbler\"}","bird":["Black-and-white Warbler"],"family":["Wood-Warblers"],"class":["864"],"trial_type":"image-multi-choice","trial_index":277,"time_elapsed":1943802,"internal_node_id":"0.0-1.0-276.0"},{"rt":4379,"responses":"{\"Q0\":\"White-throated Sparrow\"}","bird":["Chipping Sparrow"],"family":["New World Sparrows and Allies"],"class":["769"],"trial_type":"image-multi-choice","trial_index":278,"time_elapsed":1949221,"internal_node_id":"0.0-1.0-277.0"},{"rt":3507,"responses":"{\"Q0\":\"Fox Sparrow\"}","bird":["Fox Sparrow"],"family":["New World Sparrows and Allies"],"class":["901"],"trial_type":"image-multi-choice","trial_index":279,"time_elapsed":1953764,"internal_node_id":"0.0-1.0-278.0"},{"rt":3247,"responses":"{\"Q0\":\"Magnolia Warbler\"}","bird":["Magnolia Warbler"],"family":["Wood-Warblers"],"class":["758"],"trial_type":"image-multi-choice","trial_index":280,"time_elapsed":1958056,"internal_node_id":"0.0-1.0-279.0"},{"rt":2364,"responses":"{\"Q0\":\"White-crowned Sparrow\"}","bird":["White-crowned Sparrow"],"family":["New World Sparrows and Allies"],"class":["766"],"trial_type":"image-multi-choice","trial_index":281,"time_elapsed":1961447,"internal_node_id":"0.0-1.0-280.0"},{"rt":2293,"responses":"{\"Q0\":\"White-throated Sparrow\"}","bird":["White-throated Sparrow"],"family":["New World Sparrows and Allies"],"class":["764"],"trial_type":"image-multi-choice","trial_index":282,"time_elapsed":1964765,"internal_node_id":"0.0-1.0-281.0"},{"rt":6322,"responses":"{\"Q0\":\"American Tree Sparrow\"}","bird":["Swamp Sparrow"],"family":["New World Sparrows and Allies"],"class":["904"],"trial_type":"image-multi-choice","trial_index":283,"time_elapsed":1972119,"internal_node_id":"0.0-1.0-282.0"},{"rt":6961,"responses":"{\"Q0\":\"Magnolia Warbler\"}","bird":["Magnolia Warbler"],"family":["Wood-Warblers"],"class":["758"],"trial_type":"image-multi-choice","trial_index":284,"time_elapsed":1980122,"internal_node_id":"0.0-1.0-283.0"},{"rt":4092,"responses":"{\"Q0\":\"Orange-crowned Warbler\"}","bird":["Orange-crowned Warbler"],"family":["Wood-Warblers"],"class":["867"],"trial_type":"image-multi-choice","trial_index":285,"time_elapsed":1985271,"internal_node_id":"0.0-1.0-284.0"},{"rt":3581,"responses":"{\"Q0\":\"Magnolia Warbler\"}","bird":["Magnolia Warbler"],"family":["Wood-Warblers"],"class":["758"],"trial_type":"image-multi-choice","trial_index":286,"time_elapsed":1989868,"internal_node_id":"0.0-1.0-285.0"},{"rt":8253,"responses":"{\"Q0\":\"Swamp Sparrow\"}","bird":["Vesper Sparrow"],"family":["New World Sparrows and Allies"],"class":["898"],"trial_type":"image-multi-choice","trial_index":287,"time_elapsed":1999155,"internal_node_id":"0.0-1.0-286.0"},{"rt":2308,"responses":"{\"Q0\":\"Northern Waterthrush\"}","bird":["Northern Waterthrush"],"family":["Wood-Warblers"],"class":["862"],"trial_type":"image-multi-choice","trial_index":288,"time_elapsed":2002477,"internal_node_id":"0.0-1.0-287.0"},{"rt":6432,"responses":"{\"Q0\":\"Blackburnian Warbler\"}","bird":["Blackburnian Warbler"],"family":["Wood-Warblers"],"class":["874"],"trial_type":"image-multi-choice","trial_index":289,"time_elapsed":2009947,"internal_node_id":"0.0-1.0-288.0"},{"rt":3213,"responses":"{\"Q0\":\"Tennessee Warbler\"}","bird":["Tennessee Warbler"],"family":["Wood-Warblers"],"class":["866"],"trial_type":"image-multi-choice","trial_index":290,"time_elapsed":2014179,"internal_node_id":"0.0-1.0-289.0"},{"rt":2482,"responses":"{\"Q0\":\"Lark Sparrow\"}","bird":["Lark Sparrow"],"family":["New World Sparrows and Allies"],"class":["899"],"trial_type":"image-multi-choice","trial_index":291,"time_elapsed":2017685,"internal_node_id":"0.0-1.0-290.0"},{"rt":3118,"responses":"{\"Q0\":\"Black-and-white Warbler\"}","bird":["Black-and-white Warbler"],"family":["Wood-Warblers"],"class":["864"],"trial_type":"image-multi-choice","trial_index":292,"time_elapsed":2021817,"internal_node_id":"0.0-1.0-291.0"},{"rt":9346,"responses":"{\"Q0\":\"Lincoln's Sparrow\"}","bird":["Lincoln's Sparrow"],"family":["New World Sparrows and Allies"],"class":["903"],"trial_type":"image-multi-choice","trial_index":293,"time_elapsed":2032185,"internal_node_id":"0.0-1.0-292.0"},{"rt":9573,"responses":"{\"Q0\":\"Orange-crowned Warbler\"}","bird":["Tennessee Warbler"],"family":["Wood-Warblers"],"class":["866"],"trial_type":"image-multi-choice","trial_index":294,"time_elapsed":2042780,"internal_node_id":"0.0-1.0-293.0"},{"rt":4525,"responses":"{\"Q0\":\"Ovenbird\"}","bird":["Ovenbird"],"family":["Wood-Warblers"],"class":["860"],"trial_type":"image-multi-choice","trial_index":295,"time_elapsed":2048341,"internal_node_id":"0.0-1.0-294.0"},{"rt":3572,"responses":"{\"Q0\":\"Vesper Sparrow\"}","bird":["Vesper Sparrow"],"family":["New World Sparrows and Allies"],"class":["898"],"trial_type":"image-multi-choice","trial_index":296,"time_elapsed":2052931,"internal_node_id":"0.0-1.0-295.0"},{"rt":2647,"responses":"{\"Q0\":\"Northern Waterthrush\"}","bird":["Northern Waterthrush"],"family":["Wood-Warblers"],"class":["862"],"trial_type":"image-multi-choice","trial_index":297,"time_elapsed":2056628,"internal_node_id":"0.0-1.0-296.0"},{"rt":11289,"responses":"{\"Q0\":\"Song Sparrow\"}","bird":["Chipping Sparrow"],"family":["New World Sparrows and Allies"],"class":["769"],"trial_type":"image-multi-choice","trial_index":298,"time_elapsed":2068955,"internal_node_id":"0.0-1.0-297.0"},{"rt":2950,"responses":"{\"Q0\":\"White-throated Sparrow\"}","bird":["Lark Sparrow"],"family":["New World Sparrows and Allies"],"class":["899"],"trial_type":"image-multi-choice","trial_index":299,"time_elapsed":2072932,"internal_node_id":"0.0-1.0-298.0"},{"rt":1944,"responses":"{\"Q0\":\"Yellow Warbler\"}","bird":["Yellow Warbler"],"family":["Wood-Warblers"],"class":["875"],"trial_type":"image-multi-choice","trial_index":300,"time_elapsed":2084881,"internal_node_id":"0.0-1.0-299.0"},{"view_history":"[{\"page_index\":0,\"viewing_time\":1711}]","rt":1711,"trial_type":"instructions","trial_index":301,"time_elapsed":2087593,"internal_node_id":"0.0-2.0"}]